"success","task","trial_type","trial_index","time_elapsed","internal_node_id","ID","condition","StartTime","EndTime","view_history","rt","stimulus","response","correct_answer","sentence_text","correct"
"1","FullScreen","fullscreen","0","3040","0.0-0.0","367640","outline","2025/8/8 11:28:45","2025/8/8 11:30:21",NULL,NULL,NULL,NULL,NULL,NULL,NULL
NULL,"category_inst_tl","instructions","1","20125","0.0-1.0","367640","outline","2025/8/8 11:28:45","2025/8/8 11:30:21","Array","17084",NULL,NULL,NULL,NULL,NULL
NULL,"classification_trial","html-button-response","2","23573","0.0-2.0-0.0-0.0","367640","outline","2025/8/8 11:28:45","2025/8/8 11:30:21",NULL,"3448","<p>思いついた言葉をすぐに書いている。</p>","1","出力","思いついた言葉をすぐに書いている。","1"
NULL,"feedback_trial","html-keyboard-response","3","24089","0.0-2.0-0.0-1.0","367640","outline","2025/8/8 11:28:45","2025/8/8 11:30:21",NULL,NULL,"<p style='color:green;'>正解！</p>",NULL,NULL,NULL,NULL
NULL,"classification_trial","html-button-response","4","26869","0.0-2.0-1.0-0.0","367640","outline","2025/8/8 11:28:45","2025/8/8 11:30:21",NULL,"2779","<p>自分の書いた文字を眺めていたが、何も考えていなかった。</p>","0","その他","自分の書いた文字を眺めていたが、何も考えていなかった。",
NULL,"feedback_trial","html-keyboard-response","5","27371","0.0-2.0-1.0-1.0","367640","outline","2025/8/8 11:28:45","2025/8/8 11:30:21",NULL,NULL,"<p style='color:red;'>不正解！もう一度回答してください。</p>",NULL,NULL,NULL,NULL
NULL,"classification_trial","html-button-response","6","28749","0.0-2.0-1.1-0.1","367640","outline","2025/8/8 11:28:45","2025/8/8 11:30:21",NULL,"1377","<p>自分の書いた文字を眺めていたが、何も考えていなかった。</p>","3","その他","自分の書いた文字を眺めていたが、何も考えていなかった。","1"
NULL,"feedback_trial","html-keyboard-response","7","29255","0.0-2.0-1.1-1.1","367640","outline","2025/8/8 11:28:45","2025/8/8 11:30:21",NULL,NULL,"<p style='color:green;'>正解！</p>",NULL,NULL,NULL,NULL
NULL,"classification_trial","html-button-response","8","30909","0.0-2.0-2.0-0.0","367640","outline","2025/8/8 11:28:45","2025/8/8 11:30:21",NULL,"1653","<p>何となく窓の外を見ていた。</p>","3","その他","何となく窓の外を見ていた。","1"
NULL,"feedback_trial","html-keyboard-response","9","31410","0.0-2.0-2.0-1.0","367640","outline","2025/8/8 11:28:45","2025/8/8 11:30:21",NULL,NULL,"<p style='color:green;'>正解！</p>",NULL,NULL,NULL,NULL
NULL,"classification_trial","html-button-response","10","32757","0.0-2.0-3.0-0.0","367640","outline","2025/8/8 11:28:45","2025/8/8 11:30:21",NULL,"1347","<p>話の構成を考えている。</p>","0","プランニング","話の構成を考えている。","1"
NULL,"feedback_trial","html-keyboard-response","11","33258","0.0-2.0-3.0-1.0","367640","outline","2025/8/8 11:28:45","2025/8/8 11:30:21",NULL,NULL,"<p style='color:green;'>正解！</p>",NULL,NULL,NULL,NULL
NULL,"classification_trial","html-button-response","12","34629","0.0-2.0-4.0-0.0","367640","outline","2025/8/8 11:28:45","2025/8/8 11:30:21",NULL,"1370","<p>ストレッチをして体をほぐした。</p>","3","その他","ストレッチをして体をほぐした。","1"
NULL,"feedback_trial","html-keyboard-response","13","35131","0.0-2.0-4.0-1.0","367640","outline","2025/8/8 11:28:45","2025/8/8 11:30:21",NULL,NULL,"<p style='color:green;'>正解！</p>",NULL,NULL,NULL,NULL
NULL,"classification_trial","html-button-response","14","37629","0.0-2.0-5.0-0.0","367640","outline","2025/8/8 11:28:45","2025/8/8 11:30:21",NULL,"2498","<p>物語の終わり方を考えている。</p>","2","プランニング","物語の終わり方を考えている。",
NULL,"feedback_trial","html-keyboard-response","15","38129","0.0-2.0-5.0-1.0","367640","outline","2025/8/8 11:28:45","2025/8/8 11:30:21",NULL,NULL,"<p style='color:red;'>不正解！もう一度回答してください。</p>",NULL,NULL,NULL,NULL
NULL,"classification_trial","html-button-response","16","38621","0.0-2.0-5.1-0.1","367640","outline","2025/8/8 11:28:45","2025/8/8 11:30:21",NULL,"491","<p>物語の終わり方を考えている。</p>","1","プランニング","物語の終わり方を考えている。",
NULL,"feedback_trial","html-keyboard-response","17","39123","0.0-2.0-5.1-1.1","367640","outline","2025/8/8 11:28:45","2025/8/8 11:30:21",NULL,NULL,"<p style='color:red;'>不正解！もう一度回答してください。</p>",NULL,NULL,NULL,NULL
NULL,"classification_trial","html-button-response","18","39741","0.0-2.0-5.2-0.2","367640","outline","2025/8/8 11:28:45","2025/8/8 11:30:21",NULL,"617","<p>物語の終わり方を考えている。</p>","0","プランニング","物語の終わり方を考えている。","1"
NULL,"feedback_trial","html-keyboard-response","19","40242","0.0-2.0-5.2-1.2","367640","outline","2025/8/8 11:28:45","2025/8/8 11:30:21",NULL,NULL,"<p style='color:green;'>正解！</p>",NULL,NULL,NULL,NULL
NULL,"classification_trial","html-button-response","20","42445","0.0-2.0-6.0-0.0","367640","outline","2025/8/8 11:28:45","2025/8/8 11:30:21",NULL,"2202","<p>タイマーの残り時間を確認した。</p>","3","その他","タイマーの残り時間を確認した。","1"
NULL,"feedback_trial","html-keyboard-response","21","42946","0.0-2.0-6.0-1.0","367640","outline","2025/8/8 11:28:45","2025/8/8 11:30:21",NULL,NULL,"<p style='color:green;'>正解！</p>",NULL,NULL,NULL,NULL
NULL,"classification_trial","html-button-response","22","44541","0.0-2.0-7.0-0.0","367640","outline","2025/8/8 11:28:45","2025/8/8 11:30:21",NULL,"1595","<p>表現をより自然に直している。</p>","2","修正","表現をより自然に直している。","1"
NULL,"feedback_trial","html-keyboard-response","23","45043","0.0-2.0-7.0-1.0","367640","outline","2025/8/8 11:28:45","2025/8/8 11:30:21",NULL,NULL,"<p style='color:green;'>正解！</p>",NULL,NULL,NULL,NULL
NULL,"classification_trial","html-button-response","24","46613","0.0-2.0-8.0-0.0","367640","outline","2025/8/8 11:28:45","2025/8/8 11:30:21",NULL,"1570","<p>書くことをやめて指を回していた。</p>","3","その他","書くことをやめて指を回していた。","1"
NULL,"feedback_trial","html-keyboard-response","25","47114","0.0-2.0-8.0-1.0","367640","outline","2025/8/8 11:28:45","2025/8/8 11:30:21",NULL,NULL,"<p style='color:green;'>正解！</p>",NULL,NULL,NULL,NULL
NULL,"classification_trial","html-button-response","26","49157","0.0-2.0-9.0-0.0","367640","outline","2025/8/8 11:28:45","2025/8/8 11:30:21",NULL,"2042","<p>「ある日」という言葉を打ち込んでいる。</p>","1","出力","「ある日」という言葉を打ち込んでいる。","1"
NULL,"feedback_trial","html-keyboard-response","27","49658","0.0-2.0-9.0-1.0","367640","outline","2025/8/8 11:28:45","2025/8/8 11:30:21",NULL,NULL,"<p style='color:green;'>正解！</p>",NULL,NULL,NULL,NULL
NULL,"classification_trial","html-button-response","28","51261","0.0-2.0-10.0-0.0","367640","outline","2025/8/8 11:28:45","2025/8/8 11:30:21",NULL,"1602","<p>テーマに合った話を作ろうとしている。</p>","0","プランニング","テーマに合った話を作ろうとしている。","1"
NULL,"feedback_trial","html-keyboard-response","29","51762","0.0-2.0-10.0-1.0","367640","outline","2025/8/8 11:28:45","2025/8/8 11:30:21",NULL,NULL,"<p style='color:green;'>正解！</p>",NULL,NULL,NULL,NULL
NULL,"classification_trial","html-button-response","30","53214","0.0-2.0-11.0-0.0","367640","outline","2025/8/8 11:28:45","2025/8/8 11:30:21",NULL,"1452","<p>内容を読み返して見直している。</p>","0","修正","内容を読み返して見直している。",
NULL,"feedback_trial","html-keyboard-response","31","53715","0.0-2.0-11.0-1.0","367640","outline","2025/8/8 11:28:45","2025/8/8 11:30:21",NULL,NULL,"<p style='color:red;'>不正解！もう一度回答してください。</p>",NULL,NULL,NULL,NULL
NULL,"classification_trial","html-button-response","32","55189","0.0-2.0-11.1-0.1","367640","outline","2025/8/8 11:28:45","2025/8/8 11:30:21",NULL,"1473","<p>内容を読み返して見直している。</p>","2","修正","内容を読み返して見直している。","1"
NULL,"feedback_trial","html-keyboard-response","33","55690","0.0-2.0-11.1-1.1","367640","outline","2025/8/8 11:28:45","2025/8/8 11:30:21",NULL,NULL,"<p style='color:green;'>正解！</p>",NULL,NULL,NULL,NULL
NULL,"classification_trial","html-button-response","34","57213","0.0-2.0-12.0-0.0","367640","outline","2025/8/8 11:28:45","2025/8/8 11:30:21",NULL,"1522","<p>全体の流れを思い描いている。</p>","0","プランニング","全体の流れを思い描いている。","1"
NULL,"feedback_trial","html-keyboard-response","35","57714","0.0-2.0-12.0-1.0","367640","outline","2025/8/8 11:28:45","2025/8/8 11:30:21",NULL,NULL,"<p style='color:green;'>正解！</p>",NULL,NULL,NULL,NULL
NULL,"classification_trial","html-button-response","36","58725","0.0-2.0-13.0-0.0","367640","outline","2025/8/8 11:28:45","2025/8/8 11:30:21",NULL,"1010","<p>頭の中の話を形にしている。</p>","0","出力","頭の中の話を形にしている。",
NULL,"feedback_trial","html-keyboard-response","37","59226","0.0-2.0-13.0-1.0","367640","outline","2025/8/8 11:28:45","2025/8/8 11:30:21",NULL,NULL,"<p style='color:red;'>不正解！もう一度回答してください。</p>",NULL,NULL,NULL,NULL
NULL,"classification_trial","html-button-response","38","60629","0.0-2.0-13.1-0.1","367640","outline","2025/8/8 11:28:45","2025/8/8 11:30:21",NULL,"1403","<p>頭の中の話を形にしている。</p>","2","出力","頭の中の話を形にしている。",
NULL,"feedback_trial","html-keyboard-response","39","61131","0.0-2.0-13.1-1.1","367640","outline","2025/8/8 11:28:45","2025/8/8 11:30:21",NULL,NULL,"<p style='color:red;'>不正解！もう一度回答してください。</p>",NULL,NULL,NULL,NULL
NULL,"classification_trial","html-button-response","40","61485","0.0-2.0-13.2-0.2","367640","outline","2025/8/8 11:28:45","2025/8/8 11:30:21",NULL,"354","<p>頭の中の話を形にしている。</p>","1","出力","頭の中の話を形にしている。","1"
NULL,"feedback_trial","html-keyboard-response","41","61986","0.0-2.0-13.2-1.2","367640","outline","2025/8/8 11:28:45","2025/8/8 11:30:21",NULL,NULL,"<p style='color:green;'>正解！</p>",NULL,NULL,NULL,NULL
NULL,"classification_trial","html-button-response","42","63533","0.0-2.0-14.0-0.0","367640","outline","2025/8/8 11:28:45","2025/8/8 11:30:21",NULL,"1546","<p>目を閉じてぼーっとしていた。</p>","3","その他","目を閉じてぼーっとしていた。","1"
NULL,"feedback_trial","html-keyboard-response","43","64035","0.0-2.0-14.0-1.0","367640","outline","2025/8/8 11:28:45","2025/8/8 11:30:21",NULL,NULL,"<p style='color:green;'>正解！</p>",NULL,NULL,NULL,NULL
NULL,"classification_trial","html-button-response","44","65333","0.0-2.0-15.0-0.0","367640","outline","2025/8/8 11:28:45","2025/8/8 11:30:21",NULL,"1297","<p>この話の舞台をどうするか決めている。</p>","0","プランニング","この話の舞台をどうするか決めている。","1"
NULL,"feedback_trial","html-keyboard-response","45","65833","0.0-2.0-15.0-1.0","367640","outline","2025/8/8 11:28:45","2025/8/8 11:30:21",NULL,NULL,"<p style='color:green;'>正解！</p>",NULL,NULL,NULL,NULL
NULL,"classification_trial","html-button-response","46","67853","0.0-2.0-16.0-0.0","367640","outline","2025/8/8 11:28:45","2025/8/8 11:30:21",NULL,"2019","<p>誤字脱字を確認するために、本文を読み直している。</p>","2","修正","誤字脱字を確認するために、本文を読み直している。","1"
NULL,"feedback_trial","html-keyboard-response","47","68354","0.0-2.0-16.0-1.0","367640","outline","2025/8/8 11:28:45","2025/8/8 11:30:21",NULL,NULL,"<p style='color:green;'>正解！</p>",NULL,NULL,NULL,NULL
NULL,"classification_trial","html-button-response","48","69853","0.0-2.0-17.0-0.0","367640","outline","2025/8/8 11:28:45","2025/8/8 11:30:21",NULL,"1498","<p>思いついた文をそのまま書いている。</p>","1","出力","思いついた文をそのまま書いている。","1"
NULL,"feedback_trial","html-keyboard-response","49","70353","0.0-2.0-17.0-1.0","367640","outline","2025/8/8 11:28:45","2025/8/8 11:30:21",NULL,NULL,"<p style='color:green;'>正解！</p>",NULL,NULL,NULL,NULL
NULL,"classification_trial","html-button-response","50","71493","0.0-2.0-18.0-0.0","367640","outline","2025/8/8 11:28:45","2025/8/8 11:30:21",NULL,"1140","<p>キャラクターの名前を入力している。</p>","0","出力","キャラクターの名前を入力している。",
NULL,"feedback_trial","html-keyboard-response","51","71994","0.0-2.0-18.0-1.0","367640","outline","2025/8/8 11:28:45","2025/8/8 11:30:21",NULL,NULL,"<p style='color:red;'>不正解！もう一度回答してください。</p>",NULL,NULL,NULL,NULL
NULL,"classification_trial","html-button-response","52","72413","0.0-2.0-18.1-0.1","367640","outline","2025/8/8 11:28:45","2025/8/8 11:30:21",NULL,"418","<p>キャラクターの名前を入力している。</p>","1","出力","キャラクターの名前を入力している。","1"
NULL,"feedback_trial","html-keyboard-response","53","72921","0.0-2.0-18.1-1.1","367640","outline","2025/8/8 11:28:45","2025/8/8 11:30:21",NULL,NULL,"<p style='color:green;'>正解！</p>",NULL,NULL,NULL,NULL
NULL,"classification_trial","html-button-response","54","74237","0.0-2.0-19.0-0.0","367640","outline","2025/8/8 11:28:45","2025/8/8 11:30:21",NULL,"1315","<p>キーボードで文章を入力している。</p>","1","出力","キーボードで文章を入力している。","1"
NULL,"feedback_trial","html-keyboard-response","55","74738","0.0-2.0-19.0-1.0","367640","outline","2025/8/8 11:28:45","2025/8/8 11:30:21",NULL,NULL,"<p style='color:green;'>正解！</p>",NULL,NULL,NULL,NULL
NULL,"classification_trial","html-button-response","56","75813","0.0-2.0-20.0-0.0","367640","outline","2025/8/8 11:28:45","2025/8/8 11:30:21",NULL,"1074","<p>話のつながりがおかしいので直した。</p>","2","修正","話のつながりがおかしいので直した。","1"
NULL,"feedback_trial","html-keyboard-response","57","76314","0.0-2.0-20.0-1.0","367640","outline","2025/8/8 11:28:45","2025/8/8 11:30:21",NULL,NULL,"<p style='color:green;'>正解！</p>",NULL,NULL,NULL,NULL
NULL,"classification_trial","html-button-response","58","77253","0.0-2.0-21.0-0.0","367640","outline","2025/8/8 11:28:45","2025/8/8 11:30:21",NULL,"939","<p>誤字を修正した。</p>","2","修正","誤字を修正した。","1"
NULL,"feedback_trial","html-keyboard-response","59","77755","0.0-2.0-21.0-1.0","367640","outline","2025/8/8 11:28:45","2025/8/8 11:30:21",NULL,NULL,"<p style='color:green;'>正解！</p>",NULL,NULL,NULL,NULL
NULL,"classification_trial","html-button-response","60","79453","0.0-2.0-22.0-0.0","367640","outline","2025/8/8 11:28:45","2025/8/8 11:30:21",NULL,"1697","<p>時系列を整理している。</p>","2","プランニング","時系列を整理している。",
NULL,"feedback_trial","html-keyboard-response","61","79955","0.0-2.0-22.0-1.0","367640","outline","2025/8/8 11:28:45","2025/8/8 11:30:21",NULL,NULL,"<p style='color:red;'>不正解！もう一度回答してください。</p>",NULL,NULL,NULL,NULL
NULL,"classification_trial","html-button-response","62","82053","0.0-2.0-22.1-0.1","367640","outline","2025/8/8 11:28:45","2025/8/8 11:30:21",NULL,"2098","<p>時系列を整理している。</p>","0","プランニング","時系列を整理している。","1"
NULL,"feedback_trial","html-keyboard-response","63","82554","0.0-2.0-22.1-1.1","367640","outline","2025/8/8 11:28:45","2025/8/8 11:30:21",NULL,NULL,"<p style='color:green;'>正解！</p>",NULL,NULL,NULL,NULL
NULL,"classification_trial","html-button-response","64","83941","0.0-2.0-23.0-0.0","367640","outline","2025/8/8 11:28:45","2025/8/8 11:30:21",NULL,"1386","<p>何も思いつかずに机の上を眺めていた。</p>","3","その他","何も思いつかずに机の上を眺めていた。","1"
NULL,"feedback_trial","html-keyboard-response","65","84443","0.0-2.0-23.0-1.0","367640","outline","2025/8/8 11:28:45","2025/8/8 11:30:21",NULL,NULL,"<p style='color:green;'>正解！</p>",NULL,NULL,NULL,NULL
NULL,"classification_trial","html-button-response","66","85781","0.0-2.0-24.0-0.0","367640","outline","2025/8/8 11:28:45","2025/8/8 11:30:21",NULL,"1338","<p>どんな登場人物がいいか悩んでいる。</p>","0","プランニング","どんな登場人物がいいか悩んでいる。","1"
NULL,"feedback_trial","html-keyboard-response","67","86281","0.0-2.0-24.0-1.0","367640","outline","2025/8/8 11:28:45","2025/8/8 11:30:21",NULL,NULL,"<p style='color:green;'>正解！</p>",NULL,NULL,NULL,NULL
NULL,"classification_trial","html-button-response","68","87797","0.0-2.0-25.0-0.0","367640","outline","2025/8/8 11:28:45","2025/8/8 11:30:21",NULL,"1516","<p>文章が変だったので書き直した。</p>","2","修正","文章が変だったので書き直した。","1"
NULL,"feedback_trial","html-keyboard-response","69","88312","0.0-2.0-25.0-1.0","367640","outline","2025/8/8 11:28:45","2025/8/8 11:30:21",NULL,NULL,"<p style='color:green;'>正解！</p>",NULL,NULL,NULL,NULL
NULL,"classification_trial","html-button-response","70","89765","0.0-2.0-26.0-0.0","367640","outline","2025/8/8 11:28:45","2025/8/8 11:30:21",NULL,"1452","<p>文章をどんどんタイピングしている。</p>","1","出力","文章をどんどんタイピングしている。","1"
NULL,"feedback_trial","html-keyboard-response","71","90266","0.0-2.0-26.0-1.0","367640","outline","2025/8/8 11:28:45","2025/8/8 11:30:21",NULL,NULL,"<p style='color:green;'>正解！</p>",NULL,NULL,NULL,NULL
NULL,"classification_trial","html-button-response","72","92485","0.0-2.0-27.0-0.0","367640","outline","2025/8/8 11:28:45","2025/8/8 11:30:21",NULL,"2218","<p>読みにくい部分を調整している。</p>","2","修正","読みにくい部分を調整している。","1"
NULL,"feedback_trial","html-keyboard-response","73","92986","0.0-2.0-27.0-1.0","367640","outline","2025/8/8 11:28:45","2025/8/8 11:30:21",NULL,NULL,"<p style='color:green;'>正解！</p>",NULL,NULL,NULL,NULL
NULL,"task_description","html-keyboard-response","74","95591","0.0-3.0","367640","outline","2025/8/8 11:28:45","2025/8/8 11:30:21",NULL,"2605","
      <p style=""text-align: left"">本課題では、<strong>あなたが考えたオリジナルの面白い物語を書いていただきます。</strong></p>
      <p style=""text-align: left"">その時に、いま覚えてもらった4種類の思考内容についてもお尋ねします。</p>
      <p><br><br></p>
      <p style=""text-align: left"">次に、本課題の前に行ってもらう課題の説明に移ります。準備ができたらスペースキーを押してください。</p>
    "," ",NULL,NULL,NULL
"1","FullScreen","fullscreen","0","6381","0.0-0.0","3260097","control","2025/8/8 11:28:38","2025/8/8 11:30:57",NULL,NULL,NULL,NULL,NULL,NULL,NULL
NULL,"category_inst_tl","instructions","1","50471","0.0-1.0","3260097","control","2025/8/8 11:28:38","2025/8/8 11:30:57","Array","44088",NULL,NULL,NULL,NULL,NULL
NULL,"classification_trial","html-button-response","2","55012","0.0-2.0-0.0-0.0","3260097","control","2025/8/8 11:28:38","2025/8/8 11:30:57",NULL,"4539","<p>この話の舞台をどうするか決めている。</p>","0","プランニング","この話の舞台をどうするか決めている。","1"
NULL,"feedback_trial","html-keyboard-response","3","55514","0.0-2.0-0.0-1.0","3260097","control","2025/8/8 11:28:38","2025/8/8 11:30:57",NULL,NULL,"<p style='color:green;'>正解！</p>",NULL,NULL,NULL,NULL
NULL,"classification_trial","html-button-response","4","59539","0.0-2.0-1.0-0.0","3260097","control","2025/8/8 11:28:38","2025/8/8 11:30:57",NULL,"4023","<p>書くことをやめて指を回していた。</p>","3","その他","書くことをやめて指を回していた。","1"
NULL,"feedback_trial","html-keyboard-response","5","60041","0.0-2.0-1.0-1.0","3260097","control","2025/8/8 11:28:38","2025/8/8 11:30:57",NULL,NULL,"<p style='color:green;'>正解！</p>",NULL,NULL,NULL,NULL
NULL,"classification_trial","html-button-response","6","63396","0.0-2.0-2.0-0.0","3260097","control","2025/8/8 11:28:38","2025/8/8 11:30:57",NULL,"3354","<p>自分の書いた文字を眺めていたが、何も考えていなかった。</p>","3","その他","自分の書いた文字を眺めていたが、何も考えていなかった。","1"
NULL,"feedback_trial","html-keyboard-response","7","63898","0.0-2.0-2.0-1.0","3260097","control","2025/8/8 11:28:38","2025/8/8 11:30:57",NULL,NULL,"<p style='color:green;'>正解！</p>",NULL,NULL,NULL,NULL
NULL,"classification_trial","html-button-response","8","66027","0.0-2.0-3.0-0.0","3260097","control","2025/8/8 11:28:38","2025/8/8 11:30:57",NULL,"2128","<p>話のつながりがおかしいので直した。</p>","2","修正","話のつながりがおかしいので直した。","1"
NULL,"feedback_trial","html-keyboard-response","9","66538","0.0-2.0-3.0-1.0","3260097","control","2025/8/8 11:28:38","2025/8/8 11:30:57",NULL,NULL,"<p style='color:green;'>正解！</p>",NULL,NULL,NULL,NULL
NULL,"classification_trial","html-button-response","10","68867","0.0-2.0-4.0-0.0","3260097","control","2025/8/8 11:28:38","2025/8/8 11:30:57",NULL,"2327","<p>読みにくい部分を調整している。</p>","2","修正","読みにくい部分を調整している。","1"
NULL,"feedback_trial","html-keyboard-response","11","69369","0.0-2.0-4.0-1.0","3260097","control","2025/8/8 11:28:38","2025/8/8 11:30:57",NULL,NULL,"<p style='color:green;'>正解！</p>",NULL,NULL,NULL,NULL
NULL,"classification_trial","html-button-response","12","71172","0.0-2.0-5.0-0.0","3260097","control","2025/8/8 11:28:38","2025/8/8 11:30:57",NULL,"1802","<p>テーマに合った話を作ろうとしている。</p>","0","プランニング","テーマに合った話を作ろうとしている。","1"
NULL,"feedback_trial","html-keyboard-response","13","71673","0.0-2.0-5.0-1.0","3260097","control","2025/8/8 11:28:38","2025/8/8 11:30:57",NULL,NULL,"<p style='color:green;'>正解！</p>",NULL,NULL,NULL,NULL
NULL,"classification_trial","html-button-response","14","73780","0.0-2.0-6.0-0.0","3260097","control","2025/8/8 11:28:38","2025/8/8 11:30:57",NULL,"2104","<p>頭の中の話を形にしている。</p>","0","出力","頭の中の話を形にしている。",
NULL,"feedback_trial","html-keyboard-response","15","74281","0.0-2.0-6.0-1.0","3260097","control","2025/8/8 11:28:38","2025/8/8 11:30:57",NULL,NULL,"<p style='color:red;'>不正解！もう一度回答してください。</p>",NULL,NULL,NULL,NULL
NULL,"classification_trial","html-button-response","16","75804","0.0-2.0-6.1-0.1","3260097","control","2025/8/8 11:28:38","2025/8/8 11:30:57",NULL,"1521","<p>頭の中の話を形にしている。</p>","1","出力","頭の中の話を形にしている。","1"
NULL,"feedback_trial","html-keyboard-response","17","76306","0.0-2.0-6.1-1.1","3260097","control","2025/8/8 11:28:38","2025/8/8 11:30:57",NULL,NULL,"<p style='color:green;'>正解！</p>",NULL,NULL,NULL,NULL
NULL,"classification_trial","html-button-response","18","79164","0.0-2.0-7.0-0.0","3260097","control","2025/8/8 11:28:38","2025/8/8 11:30:57",NULL,"2856","<p>何も思いつかずに机の上を眺めていた。</p>","3","その他","何も思いつかずに机の上を眺めていた。","1"
NULL,"feedback_trial","html-keyboard-response","19","79666","0.0-2.0-7.0-1.0","3260097","control","2025/8/8 11:28:38","2025/8/8 11:30:57",NULL,NULL,"<p style='color:green;'>正解！</p>",NULL,NULL,NULL,NULL
NULL,"classification_trial","html-button-response","20","81924","0.0-2.0-8.0-0.0","3260097","control","2025/8/8 11:28:38","2025/8/8 11:30:57",NULL,"2257","<p>どんな登場人物がいいか悩んでいる。</p>","0","プランニング","どんな登場人物がいいか悩んでいる。","1"
NULL,"feedback_trial","html-keyboard-response","21","82425","0.0-2.0-8.0-1.0","3260097","control","2025/8/8 11:28:38","2025/8/8 11:30:57",NULL,NULL,"<p style='color:green;'>正解！</p>",NULL,NULL,NULL,NULL
NULL,"classification_trial","html-button-response","22","84860","0.0-2.0-9.0-0.0","3260097","control","2025/8/8 11:28:38","2025/8/8 11:30:57",NULL,"2433","<p>思いついた言葉をすぐに書いている。</p>","1","出力","思いついた言葉をすぐに書いている。","1"
NULL,"feedback_trial","html-keyboard-response","23","85361","0.0-2.0-9.0-1.0","3260097","control","2025/8/8 11:28:38","2025/8/8 11:30:57",NULL,NULL,"<p style='color:green;'>正解！</p>",NULL,NULL,NULL,NULL
NULL,"classification_trial","html-button-response","24","87268","0.0-2.0-10.0-0.0","3260097","control","2025/8/8 11:28:38","2025/8/8 11:30:57",NULL,"1905","<p>目を閉じてぼーっとしていた。</p>","3","その他","目を閉じてぼーっとしていた。","1"
NULL,"feedback_trial","html-keyboard-response","25","87769","0.0-2.0-10.0-1.0","3260097","control","2025/8/8 11:28:38","2025/8/8 11:30:57",NULL,NULL,"<p style='color:green;'>正解！</p>",NULL,NULL,NULL,NULL
NULL,"classification_trial","html-button-response","26","89508","0.0-2.0-11.0-0.0","3260097","control","2025/8/8 11:28:38","2025/8/8 11:30:57",NULL,"1737","<p>キーボードで文章を入力している。</p>","1","出力","キーボードで文章を入力している。","1"
NULL,"feedback_trial","html-keyboard-response","27","90010","0.0-2.0-11.0-1.0","3260097","control","2025/8/8 11:28:38","2025/8/8 11:30:57",NULL,NULL,"<p style='color:green;'>正解！</p>",NULL,NULL,NULL,NULL
NULL,"classification_trial","html-button-response","28","92476","0.0-2.0-12.0-0.0","3260097","control","2025/8/8 11:28:38","2025/8/8 11:30:57",NULL,"2465","<p>誤字脱字を確認するために、本文を読み直している。</p>","2","修正","誤字脱字を確認するために、本文を読み直している。","1"
NULL,"feedback_trial","html-keyboard-response","29","92978","0.0-2.0-12.0-1.0","3260097","control","2025/8/8 11:28:38","2025/8/8 11:30:57",NULL,NULL,"<p style='color:green;'>正解！</p>",NULL,NULL,NULL,NULL
NULL,"classification_trial","html-button-response","30","94188","0.0-2.0-13.0-0.0","3260097","control","2025/8/8 11:28:38","2025/8/8 11:30:57",NULL,"1208","<p>誤字を修正した。</p>","2","修正","誤字を修正した。","1"
NULL,"feedback_trial","html-keyboard-response","31","94690","0.0-2.0-13.0-1.0","3260097","control","2025/8/8 11:28:38","2025/8/8 11:30:57",NULL,NULL,"<p style='color:green;'>正解！</p>",NULL,NULL,NULL,NULL
NULL,"classification_trial","html-button-response","32","96108","0.0-2.0-14.0-0.0","3260097","control","2025/8/8 11:28:38","2025/8/8 11:30:57",NULL,"1416","<p>話の構成を考えている。</p>","0","プランニング","話の構成を考えている。","1"
NULL,"feedback_trial","html-keyboard-response","33","96610","0.0-2.0-14.0-1.0","3260097","control","2025/8/8 11:28:38","2025/8/8 11:30:57",NULL,NULL,"<p style='color:green;'>正解！</p>",NULL,NULL,NULL,NULL
NULL,"classification_trial","html-button-response","34","98428","0.0-2.0-15.0-0.0","3260097","control","2025/8/8 11:28:38","2025/8/8 11:30:57",NULL,"1817","<p>「ある日」という言葉を打ち込んでいる。</p>","1","出力","「ある日」という言葉を打ち込んでいる。","1"
NULL,"feedback_trial","html-keyboard-response","35","98929","0.0-2.0-15.0-1.0","3260097","control","2025/8/8 11:28:38","2025/8/8 11:30:57",NULL,NULL,"<p style='color:green;'>正解！</p>",NULL,NULL,NULL,NULL
NULL,"classification_trial","html-button-response","36","101136","0.0-2.0-16.0-0.0","3260097","control","2025/8/8 11:28:38","2025/8/8 11:30:57",NULL,"2205","<p>文章が変だったので書き直した。</p>","2","修正","文章が変だったので書き直した。","1"
NULL,"feedback_trial","html-keyboard-response","37","101637","0.0-2.0-16.0-1.0","3260097","control","2025/8/8 11:28:38","2025/8/8 11:30:57",NULL,NULL,"<p style='color:green;'>正解！</p>",NULL,NULL,NULL,NULL
NULL,"classification_trial","html-button-response","38","104636","0.0-2.0-17.0-0.0","3260097","control","2025/8/8 11:28:38","2025/8/8 11:30:57",NULL,"2998","<p>タイマーの残り時間を確認した。</p>","3","その他","タイマーの残り時間を確認した。","1"
NULL,"feedback_trial","html-keyboard-response","39","105138","0.0-2.0-17.0-1.0","3260097","control","2025/8/8 11:28:38","2025/8/8 11:30:57",NULL,NULL,"<p style='color:green;'>正解！</p>",NULL,NULL,NULL,NULL
NULL,"classification_trial","html-button-response","40","106504","0.0-2.0-18.0-0.0","3260097","control","2025/8/8 11:28:38","2025/8/8 11:30:57",NULL,"1365","<p>文章をどんどんタイピングしている。</p>","1","出力","文章をどんどんタイピングしている。","1"
NULL,"feedback_trial","html-keyboard-response","41","107006","0.0-2.0-18.0-1.0","3260097","control","2025/8/8 11:28:38","2025/8/8 11:30:57",NULL,NULL,"<p style='color:green;'>正解！</p>",NULL,NULL,NULL,NULL
NULL,"classification_trial","html-button-response","42","109356","0.0-2.0-19.0-0.0","3260097","control","2025/8/8 11:28:38","2025/8/8 11:30:57",NULL,"2349","<p>全体の流れを思い描いている。</p>","0","プランニング","全体の流れを思い描いている。","1"
NULL,"feedback_trial","html-keyboard-response","43","109857","0.0-2.0-19.0-1.0","3260097","control","2025/8/8 11:28:38","2025/8/8 11:30:57",NULL,NULL,"<p style='color:green;'>正解！</p>",NULL,NULL,NULL,NULL
NULL,"classification_trial","html-button-response","44","111476","0.0-2.0-20.0-0.0","3260097","control","2025/8/8 11:28:38","2025/8/8 11:30:57",NULL,"1617","<p>思いついた文をそのまま書いている。</p>","1","出力","思いついた文をそのまま書いている。","1"
NULL,"feedback_trial","html-keyboard-response","45","111978","0.0-2.0-20.0-1.0","3260097","control","2025/8/8 11:28:38","2025/8/8 11:30:57",NULL,NULL,"<p style='color:green;'>正解！</p>",NULL,NULL,NULL,NULL
NULL,"classification_trial","html-button-response","46","114192","0.0-2.0-21.0-0.0","3260097","control","2025/8/8 11:28:38","2025/8/8 11:30:57",NULL,"2212","<p>内容を読み返して見直している。</p>","2","修正","内容を読み返して見直している。","1"
NULL,"feedback_trial","html-keyboard-response","47","114694","0.0-2.0-21.0-1.0","3260097","control","2025/8/8 11:28:38","2025/8/8 11:30:57",NULL,NULL,"<p style='color:green;'>正解！</p>",NULL,NULL,NULL,NULL
NULL,"classification_trial","html-button-response","48","116188","0.0-2.0-22.0-0.0","3260097","control","2025/8/8 11:28:38","2025/8/8 11:30:57",NULL,"1493","<p>何となく窓の外を見ていた。</p>","3","その他","何となく窓の外を見ていた。","1"
NULL,"feedback_trial","html-keyboard-response","49","116689","0.0-2.0-22.0-1.0","3260097","control","2025/8/8 11:28:38","2025/8/8 11:30:57",NULL,NULL,"<p style='color:green;'>正解！</p>",NULL,NULL,NULL,NULL
NULL,"classification_trial","html-button-response","50","119692","0.0-2.0-23.0-0.0","3260097","control","2025/8/8 11:28:38","2025/8/8 11:30:57",NULL,"3001","<p>物語の終わり方を考えている。</p>","0","プランニング","物語の終わり方を考えている。","1"
NULL,"feedback_trial","html-keyboard-response","51","120193","0.0-2.0-23.0-1.0","3260097","control","2025/8/8 11:28:38","2025/8/8 11:30:57",NULL,NULL,"<p style='color:green;'>正解！</p>",NULL,NULL,NULL,NULL
NULL,"classification_trial","html-button-response","52","122236","0.0-2.0-24.0-0.0","3260097","control","2025/8/8 11:28:38","2025/8/8 11:30:57",NULL,"2042","<p>キャラクターの名前を入力している。</p>","1","出力","キャラクターの名前を入力している。","1"
NULL,"feedback_trial","html-keyboard-response","53","122738","0.0-2.0-24.0-1.0","3260097","control","2025/8/8 11:28:38","2025/8/8 11:30:57",NULL,NULL,"<p style='color:green;'>正解！</p>",NULL,NULL,NULL,NULL
NULL,"classification_trial","html-button-response","54","124908","0.0-2.0-25.0-0.0","3260097","control","2025/8/8 11:28:38","2025/8/8 11:30:57",NULL,"2168","<p>時系列を整理している。</p>","0","プランニング","時系列を整理している。","1"
NULL,"feedback_trial","html-keyboard-response","55","125409","0.0-2.0-25.0-1.0","3260097","control","2025/8/8 11:28:38","2025/8/8 11:30:57",NULL,NULL,"<p style='color:green;'>正解！</p>",NULL,NULL,NULL,NULL
NULL,"classification_trial","html-button-response","56","126796","0.0-2.0-26.0-0.0","3260097","control","2025/8/8 11:28:38","2025/8/8 11:30:57",NULL,"1385","<p>ストレッチをして体をほぐした。</p>","3","その他","ストレッチをして体をほぐした。","1"
NULL,"feedback_trial","html-keyboard-response","57","127297","0.0-2.0-26.0-1.0","3260097","control","2025/8/8 11:28:38","2025/8/8 11:30:57",NULL,NULL,"<p style='color:green;'>正解！</p>",NULL,NULL,NULL,NULL
NULL,"classification_trial","html-button-response","58","131088","0.0-2.0-27.0-0.0","3260097","control","2025/8/8 11:28:38","2025/8/8 11:30:57",NULL,"3789","<p>表現をより自然に直している。</p>","2","修正","表現をより自然に直している。","1"
NULL,"feedback_trial","html-keyboard-response","59","131590","0.0-2.0-27.0-1.0","3260097","control","2025/8/8 11:28:38","2025/8/8 11:30:57",NULL,NULL,"<p style='color:green;'>正解！</p>",NULL,NULL,NULL,NULL
NULL,"task_description","html-keyboard-response","60","139057","0.0-3.0","3260097","control","2025/8/8 11:28:38","2025/8/8 11:30:57",NULL,"7465","
      <p style=""text-align: left"">本課題では、<strong>あなたが考えたオリジナルの面白い物語を書いていただきます。</strong></p>
      <p style=""text-align: left"">その時に、いま覚えてもらった4種類の思考内容についてもお尋ねします。</p>
      <p><br><br></p>
      <p style=""text-align: left"">次に、本課題の前に行ってもらう課題の説明に移ります。準備ができたらスペースキーを押してください。</p>
    "," ",NULL,NULL,NULL
"1","FullScreen","fullscreen","0","3367","0.0-0.0","5398551","control","2025/8/8 11:28:39","2025/8/8 11:31:10",NULL,NULL,NULL,NULL,NULL,NULL,NULL
NULL,"category_inst_tl","instructions","1","33865","0.0-1.0","5398551","control","2025/8/8 11:28:39","2025/8/8 11:31:10","Array","30498",NULL,NULL,NULL,NULL,NULL
NULL,"classification_trial","html-button-response","2","36435","0.0-2.0-0.0-0.0","5398551","control","2025/8/8 11:28:39","2025/8/8 11:31:10",NULL,"2568","<p>誤字を修正した。</p>","2","修正","誤字を修正した。","1"
NULL,"feedback_trial","html-keyboard-response","3","36936","0.0-2.0-0.0-1.0","5398551","control","2025/8/8 11:28:39","2025/8/8 11:31:10",NULL,NULL,"<p style='color:green;'>正解！</p>",NULL,NULL,NULL,NULL
NULL,"classification_trial","html-button-response","4","40861","0.0-2.0-1.0-0.0","5398551","control","2025/8/8 11:28:39","2025/8/8 11:31:10",NULL,"3924","<p>表現をより自然に直している。</p>","2","修正","表現をより自然に直している。","1"
NULL,"feedback_trial","html-keyboard-response","5","41363","0.0-2.0-1.0-1.0","5398551","control","2025/8/8 11:28:39","2025/8/8 11:31:10",NULL,NULL,"<p style='color:green;'>正解！</p>",NULL,NULL,NULL,NULL
NULL,"classification_trial","html-button-response","6","43455","0.0-2.0-2.0-0.0","5398551","control","2025/8/8 11:28:39","2025/8/8 11:31:10",NULL,"2092","<p>この話の舞台をどうするか決めている。</p>","0","プランニング","この話の舞台をどうするか決めている。","1"
NULL,"feedback_trial","html-keyboard-response","7","43957","0.0-2.0-2.0-1.0","5398551","control","2025/8/8 11:28:39","2025/8/8 11:31:10",NULL,NULL,"<p style='color:green;'>正解！</p>",NULL,NULL,NULL,NULL
NULL,"classification_trial","html-button-response","8","46330","0.0-2.0-3.0-0.0","5398551","control","2025/8/8 11:28:39","2025/8/8 11:31:10",NULL,"2373","<p>何も思いつかずに机の上を眺めていた。</p>","3","その他","何も思いつかずに机の上を眺めていた。","1"
NULL,"feedback_trial","html-keyboard-response","9","46831","0.0-2.0-3.0-1.0","5398551","control","2025/8/8 11:28:39","2025/8/8 11:31:10",NULL,NULL,"<p style='color:green;'>正解！</p>",NULL,NULL,NULL,NULL
NULL,"classification_trial","html-button-response","10","48980","0.0-2.0-4.0-0.0","5398551","control","2025/8/8 11:28:39","2025/8/8 11:31:10",NULL,"2149","<p>頭の中の話を形にしている。</p>","0","出力","頭の中の話を形にしている。",
NULL,"feedback_trial","html-keyboard-response","11","49481","0.0-2.0-4.0-1.0","5398551","control","2025/8/8 11:28:39","2025/8/8 11:31:10",NULL,NULL,"<p style='color:red;'>不正解！もう一度回答してください。</p>",NULL,NULL,NULL,NULL
NULL,"classification_trial","html-button-response","12","51314","0.0-2.0-4.1-0.1","5398551","control","2025/8/8 11:28:39","2025/8/8 11:31:10",NULL,"1832","<p>頭の中の話を形にしている。</p>","1","出力","頭の中の話を形にしている。","1"
NULL,"feedback_trial","html-keyboard-response","13","51814","0.0-2.0-4.1-1.1","5398551","control","2025/8/8 11:28:39","2025/8/8 11:31:10",NULL,NULL,"<p style='color:green;'>正解！</p>",NULL,NULL,NULL,NULL
NULL,"classification_trial","html-button-response","14","53629","0.0-2.0-5.0-0.0","5398551","control","2025/8/8 11:28:39","2025/8/8 11:31:10",NULL,"1814","<p>思いついた言葉をすぐに書いている。</p>","1","出力","思いついた言葉をすぐに書いている。","1"
NULL,"feedback_trial","html-keyboard-response","15","54137","0.0-2.0-5.0-1.0","5398551","control","2025/8/8 11:28:39","2025/8/8 11:31:10",NULL,NULL,"<p style='color:green;'>正解！</p>",NULL,NULL,NULL,NULL
NULL,"classification_trial","html-button-response","16","56021","0.0-2.0-6.0-0.0","5398551","control","2025/8/8 11:28:39","2025/8/8 11:31:10",NULL,"1884","<p>どんな登場人物がいいか悩んでいる。</p>","0","プランニング","どんな登場人物がいいか悩んでいる。","1"
NULL,"feedback_trial","html-keyboard-response","17","56523","0.0-2.0-6.0-1.0","5398551","control","2025/8/8 11:28:39","2025/8/8 11:31:10",NULL,NULL,"<p style='color:green;'>正解！</p>",NULL,NULL,NULL,NULL
NULL,"classification_trial","html-button-response","18","58281","0.0-2.0-7.0-0.0","5398551","control","2025/8/8 11:28:39","2025/8/8 11:31:10",NULL,"1758","<p>文章が変だったので書き直した。</p>","2","修正","文章が変だったので書き直した。","1"
NULL,"feedback_trial","html-keyboard-response","19","58793","0.0-2.0-7.0-1.0","5398551","control","2025/8/8 11:28:39","2025/8/8 11:31:10",NULL,NULL,"<p style='color:green;'>正解！</p>",NULL,NULL,NULL,NULL
NULL,"classification_trial","html-button-response","20","60344","0.0-2.0-8.0-0.0","5398551","control","2025/8/8 11:28:39","2025/8/8 11:31:10",NULL,"1551","<p>目を閉じてぼーっとしていた。</p>","3","その他","目を閉じてぼーっとしていた。","1"
NULL,"feedback_trial","html-keyboard-response","21","60846","0.0-2.0-8.0-1.0","5398551","control","2025/8/8 11:28:39","2025/8/8 11:31:10",NULL,NULL,"<p style='color:green;'>正解！</p>",NULL,NULL,NULL,NULL
NULL,"classification_trial","html-button-response","22","62686","0.0-2.0-9.0-0.0","5398551","control","2025/8/8 11:28:39","2025/8/8 11:31:10",NULL,"1839","<p>思いついた文をそのまま書いている。</p>","1","出力","思いついた文をそのまま書いている。","1"
NULL,"feedback_trial","html-keyboard-response","23","63187","0.0-2.0-9.0-1.0","5398551","control","2025/8/8 11:28:39","2025/8/8 11:31:10",NULL,NULL,"<p style='color:green;'>正解！</p>",NULL,NULL,NULL,NULL
NULL,"classification_trial","html-button-response","24","65483","0.0-2.0-10.0-0.0","5398551","control","2025/8/8 11:28:39","2025/8/8 11:31:10",NULL,"2296","<p>物語の終わり方を考えている。</p>","0","プランニング","物語の終わり方を考えている。","1"
NULL,"feedback_trial","html-keyboard-response","25","65984","0.0-2.0-10.0-1.0","5398551","control","2025/8/8 11:28:39","2025/8/8 11:31:10",NULL,NULL,"<p style='color:green;'>正解！</p>",NULL,NULL,NULL,NULL
NULL,"classification_trial","html-button-response","26","68036","0.0-2.0-11.0-0.0","5398551","control","2025/8/8 11:28:39","2025/8/8 11:31:10",NULL,"2051","<p>時系列を整理している。</p>","0","プランニング","時系列を整理している。","1"
NULL,"feedback_trial","html-keyboard-response","27","68537","0.0-2.0-11.0-1.0","5398551","control","2025/8/8 11:28:39","2025/8/8 11:31:10",NULL,NULL,"<p style='color:green;'>正解！</p>",NULL,NULL,NULL,NULL
NULL,"classification_trial","html-button-response","28","70453","0.0-2.0-12.0-0.0","5398551","control","2025/8/8 11:28:39","2025/8/8 11:31:10",NULL,"1915","<p>話のつながりがおかしいので直した。</p>","2","修正","話のつながりがおかしいので直した。","1"
NULL,"feedback_trial","html-keyboard-response","29","70954","0.0-2.0-12.0-1.0","5398551","control","2025/8/8 11:28:39","2025/8/8 11:31:10",NULL,NULL,"<p style='color:green;'>正解！</p>",NULL,NULL,NULL,NULL
NULL,"classification_trial","html-button-response","30","72643","0.0-2.0-13.0-0.0","5398551","control","2025/8/8 11:28:39","2025/8/8 11:31:10",NULL,"1688","<p>文章をどんどんタイピングしている。</p>","1","出力","文章をどんどんタイピングしている。","1"
NULL,"feedback_trial","html-keyboard-response","31","73144","0.0-2.0-13.0-1.0","5398551","control","2025/8/8 11:28:39","2025/8/8 11:31:10",NULL,NULL,"<p style='color:green;'>正解！</p>",NULL,NULL,NULL,NULL
NULL,"classification_trial","html-button-response","32","74659","0.0-2.0-14.0-0.0","5398551","control","2025/8/8 11:28:39","2025/8/8 11:31:10",NULL,"1514","<p>「ある日」という言葉を打ち込んでいる。</p>","1","出力","「ある日」という言葉を打ち込んでいる。","1"
NULL,"feedback_trial","html-keyboard-response","33","75159","0.0-2.0-14.0-1.0","5398551","control","2025/8/8 11:28:39","2025/8/8 11:31:10",NULL,NULL,"<p style='color:green;'>正解！</p>",NULL,NULL,NULL,NULL
NULL,"classification_trial","html-button-response","34","77253","0.0-2.0-15.0-0.0","5398551","control","2025/8/8 11:28:39","2025/8/8 11:31:10",NULL,"2093","<p>タイマーの残り時間を確認した。</p>","3","その他","タイマーの残り時間を確認した。","1"
NULL,"feedback_trial","html-keyboard-response","35","77754","0.0-2.0-15.0-1.0","5398551","control","2025/8/8 11:28:39","2025/8/8 11:31:10",NULL,NULL,"<p style='color:green;'>正解！</p>",NULL,NULL,NULL,NULL
NULL,"classification_trial","html-button-response","36","79418","0.0-2.0-16.0-0.0","5398551","control","2025/8/8 11:28:39","2025/8/8 11:31:10",NULL,"1664","<p>書くことをやめて指を回していた。</p>","3","その他","書くことをやめて指を回していた。","1"
NULL,"feedback_trial","html-keyboard-response","37","79919","0.0-2.0-16.0-1.0","5398551","control","2025/8/8 11:28:39","2025/8/8 11:31:10",NULL,NULL,"<p style='color:green;'>正解！</p>",NULL,NULL,NULL,NULL
NULL,"classification_trial","html-button-response","38","81741","0.0-2.0-17.0-0.0","5398551","control","2025/8/8 11:28:39","2025/8/8 11:31:10",NULL,"1822","<p>テーマに合った話を作ろうとしている。</p>","0","プランニング","テーマに合った話を作ろうとしている。","1"
NULL,"feedback_trial","html-keyboard-response","39","82242","0.0-2.0-17.0-1.0","5398551","control","2025/8/8 11:28:39","2025/8/8 11:31:10",NULL,NULL,"<p style='color:green;'>正解！</p>",NULL,NULL,NULL,NULL
NULL,"classification_trial","html-button-response","40","83676","0.0-2.0-18.0-0.0","5398551","control","2025/8/8 11:28:39","2025/8/8 11:31:10",NULL,"1433","<p>キーボードで文章を入力している。</p>","1","出力","キーボードで文章を入力している。","1"
NULL,"feedback_trial","html-keyboard-response","41","84177","0.0-2.0-18.0-1.0","5398551","control","2025/8/8 11:28:39","2025/8/8 11:31:10",NULL,NULL,"<p style='color:green;'>正解！</p>",NULL,NULL,NULL,NULL
NULL,"classification_trial","html-button-response","42","86107","0.0-2.0-19.0-0.0","5398551","control","2025/8/8 11:28:39","2025/8/8 11:31:10",NULL,"1929","<p>読みにくい部分を調整している。</p>","2","修正","読みにくい部分を調整している。","1"
NULL,"feedback_trial","html-keyboard-response","43","86616","0.0-2.0-19.0-1.0","5398551","control","2025/8/8 11:28:39","2025/8/8 11:31:10",NULL,NULL,"<p style='color:green;'>正解！</p>",NULL,NULL,NULL,NULL
NULL,"classification_trial","html-button-response","44","88489","0.0-2.0-20.0-0.0","5398551","control","2025/8/8 11:28:39","2025/8/8 11:31:10",NULL,"1873","<p>話の構成を考えている。</p>","0","プランニング","話の構成を考えている。","1"
NULL,"feedback_trial","html-keyboard-response","45","88990","0.0-2.0-20.0-1.0","5398551","control","2025/8/8 11:28:39","2025/8/8 11:31:10",NULL,NULL,"<p style='color:green;'>正解！</p>",NULL,NULL,NULL,NULL
NULL,"classification_trial","html-button-response","46","90806","0.0-2.0-21.0-0.0","5398551","control","2025/8/8 11:28:39","2025/8/8 11:31:10",NULL,"1816","<p>全体の流れを思い描いている。</p>","0","プランニング","全体の流れを思い描いている。","1"
NULL,"feedback_trial","html-keyboard-response","47","91307","0.0-2.0-21.0-1.0","5398551","control","2025/8/8 11:28:39","2025/8/8 11:31:10",NULL,NULL,"<p style='color:green;'>正解！</p>",NULL,NULL,NULL,NULL
NULL,"classification_trial","html-button-response","48","93802","0.0-2.0-22.0-0.0","5398551","control","2025/8/8 11:28:39","2025/8/8 11:31:10",NULL,"2495","<p>自分の書いた文字を眺めていたが、何も考えていなかった。</p>","3","その他","自分の書いた文字を眺めていたが、何も考えていなかった。","1"
NULL,"feedback_trial","html-keyboard-response","49","94303","0.0-2.0-22.0-1.0","5398551","control","2025/8/8 11:28:39","2025/8/8 11:31:10",NULL,NULL,"<p style='color:green;'>正解！</p>",NULL,NULL,NULL,NULL
NULL,"classification_trial","html-button-response","50","95956","0.0-2.0-23.0-0.0","5398551","control","2025/8/8 11:28:39","2025/8/8 11:31:10",NULL,"1652","<p>キャラクターの名前を入力している。</p>","1","出力","キャラクターの名前を入力している。","1"
NULL,"feedback_trial","html-keyboard-response","51","96457","0.0-2.0-23.0-1.0","5398551","control","2025/8/8 11:28:39","2025/8/8 11:31:10",NULL,NULL,"<p style='color:green;'>正解！</p>",NULL,NULL,NULL,NULL
NULL,"classification_trial","html-button-response","52","97970","0.0-2.0-24.0-0.0","5398551","control","2025/8/8 11:28:39","2025/8/8 11:31:10",NULL,"1512","<p>何となく窓の外を見ていた。</p>","3","その他","何となく窓の外を見ていた。","1"
NULL,"feedback_trial","html-keyboard-response","53","98482","0.0-2.0-24.0-1.0","5398551","control","2025/8/8 11:28:39","2025/8/8 11:31:10",NULL,NULL,"<p style='color:green;'>正解！</p>",NULL,NULL,NULL,NULL
NULL,"classification_trial","html-button-response","54","101829","0.0-2.0-25.0-0.0","5398551","control","2025/8/8 11:28:39","2025/8/8 11:31:10",NULL,"3347","<p>内容を読み返して見直している。</p>","3","修正","内容を読み返して見直している。",
NULL,"feedback_trial","html-keyboard-response","55","102330","0.0-2.0-25.0-1.0","5398551","control","2025/8/8 11:28:39","2025/8/8 11:31:10",NULL,NULL,"<p style='color:red;'>不正解！もう一度回答してください。</p>",NULL,NULL,NULL,NULL
NULL,"classification_trial","html-button-response","56","105353","0.0-2.0-25.1-0.1","5398551","control","2025/8/8 11:28:39","2025/8/8 11:31:10",NULL,"3023","<p>内容を読み返して見直している。</p>","2","修正","内容を読み返して見直している。","1"
NULL,"feedback_trial","html-keyboard-response","57","105854","0.0-2.0-25.1-1.1","5398551","control","2025/8/8 11:28:39","2025/8/8 11:31:10",NULL,NULL,"<p style='color:green;'>正解！</p>",NULL,NULL,NULL,NULL
NULL,"classification_trial","html-button-response","58","108053","0.0-2.0-26.0-0.0","5398551","control","2025/8/8 11:28:39","2025/8/8 11:31:10",NULL,"2198","<p>誤字脱字を確認するために、本文を読み直している。</p>","2","修正","誤字脱字を確認するために、本文を読み直している。","1"
NULL,"feedback_trial","html-keyboard-response","59","108554","0.0-2.0-26.0-1.0","5398551","control","2025/8/8 11:28:39","2025/8/8 11:31:10",NULL,NULL,"<p style='color:green;'>正解！</p>",NULL,NULL,NULL,NULL
NULL,"classification_trial","html-button-response","60","110150","0.0-2.0-27.0-0.0","5398551","control","2025/8/8 11:28:39","2025/8/8 11:31:10",NULL,"1596","<p>ストレッチをして体をほぐした。</p>","3","その他","ストレッチをして体をほぐした。","1"
NULL,"feedback_trial","html-keyboard-response","61","110660","0.0-2.0-27.0-1.0","5398551","control","2025/8/8 11:28:39","2025/8/8 11:31:10",NULL,NULL,"<p style='color:green;'>正解！</p>",NULL,NULL,NULL,NULL
NULL,"task_description","html-keyboard-response","62","150996","0.0-3.0","5398551","control","2025/8/8 11:28:39","2025/8/8 11:31:10",NULL,"40335","
      <p style=""text-align: left"">本課題では、<strong>あなたが考えたオリジナルの面白い物語を書いていただきます。</strong></p>
      <p style=""text-align: left"">その時に、いま覚えてもらった4種類の思考内容についてもお尋ねします。</p>
      <p><br><br></p>
      <p style=""text-align: left"">次に、本課題の前に行ってもらう課題の説明に移ります。準備ができたらスペースキーを押してください。</p>
    "," ",NULL,NULL,NULL
"1","FullScreen","fullscreen","0","10982","0.0-0.0","5127776","structured","2025/8/8 11:29:51","2025/8/8 11:31:40",NULL,NULL,NULL,NULL,NULL,NULL,NULL
NULL,"category_inst_tl","instructions","1","33188","0.0-1.0","5127776","structured","2025/8/8 11:29:51","2025/8/8 11:31:40","Array","22205",NULL,NULL,NULL,NULL,NULL
NULL,"classification_trial","html-button-response","2","37802","0.0-2.0-0.0-0.0","5127776","structured","2025/8/8 11:29:51","2025/8/8 11:31:40",NULL,"4614","<p>目を閉じてぼーっとしていた。</p>","1","その他","目を閉じてぼーっとしていた。",
NULL,"feedback_trial","html-keyboard-response","3","38304","0.0-2.0-0.0-1.0","5127776","structured","2025/8/8 11:29:51","2025/8/8 11:31:40",NULL,NULL,"<p style='color:red;'>不正解！もう一度回答してください。</p>",NULL,NULL,NULL,NULL
NULL,"classification_trial","html-button-response","4","39682","0.0-2.0-0.1-0.1","5127776","structured","2025/8/8 11:29:51","2025/8/8 11:31:40",NULL,"1378","<p>目を閉じてぼーっとしていた。</p>","2","その他","目を閉じてぼーっとしていた。",
NULL,"feedback_trial","html-keyboard-response","5","40183","0.0-2.0-0.1-1.1","5127776","structured","2025/8/8 11:29:51","2025/8/8 11:31:40",NULL,NULL,"<p style='color:red;'>不正解！もう一度回答してください。</p>",NULL,NULL,NULL,NULL
NULL,"classification_trial","html-button-response","6","40563","0.0-2.0-0.2-0.2","5127776","structured","2025/8/8 11:29:51","2025/8/8 11:31:40",NULL,"379","<p>目を閉じてぼーっとしていた。</p>","3","その他","目を閉じてぼーっとしていた。","1"
NULL,"feedback_trial","html-keyboard-response","7","41064","0.0-2.0-0.2-1.2","5127776","structured","2025/8/8 11:29:51","2025/8/8 11:31:40",NULL,NULL,"<p style='color:green;'>正解！</p>",NULL,NULL,NULL,NULL
NULL,"classification_trial","html-button-response","8","42874","0.0-2.0-1.0-0.0","5127776","structured","2025/8/8 11:29:51","2025/8/8 11:31:40",NULL,"1810","<p>全体の流れを思い描いている。</p>","0","プランニング","全体の流れを思い描いている。","1"
NULL,"feedback_trial","html-keyboard-response","9","43375","0.0-2.0-1.0-1.0","5127776","structured","2025/8/8 11:29:51","2025/8/8 11:31:40",NULL,NULL,"<p style='color:green;'>正解！</p>",NULL,NULL,NULL,NULL
NULL,"classification_trial","html-button-response","10","44800","0.0-2.0-2.0-0.0","5127776","structured","2025/8/8 11:29:51","2025/8/8 11:31:40",NULL,"1424","<p>キーボードで文章を入力している。</p>","1","出力","キーボードで文章を入力している。","1"
NULL,"feedback_trial","html-keyboard-response","11","45312","0.0-2.0-2.0-1.0","5127776","structured","2025/8/8 11:29:51","2025/8/8 11:31:40",NULL,NULL,"<p style='color:green;'>正解！</p>",NULL,NULL,NULL,NULL
NULL,"classification_trial","html-button-response","12","46562","0.0-2.0-3.0-0.0","5127776","structured","2025/8/8 11:29:51","2025/8/8 11:31:40",NULL,"1249","<p>内容を読み返して見直している。</p>","2","修正","内容を読み返して見直している。","1"
NULL,"feedback_trial","html-keyboard-response","13","47062","0.0-2.0-3.0-1.0","5127776","structured","2025/8/8 11:29:51","2025/8/8 11:31:40",NULL,NULL,"<p style='color:green;'>正解！</p>",NULL,NULL,NULL,NULL
NULL,"classification_trial","html-button-response","14","48482","0.0-2.0-4.0-0.0","5127776","structured","2025/8/8 11:29:51","2025/8/8 11:31:40",NULL,"1419","<p>頭の中の話を形にしている。</p>","0","出力","頭の中の話を形にしている。",
NULL,"feedback_trial","html-keyboard-response","15","48984","0.0-2.0-4.0-1.0","5127776","structured","2025/8/8 11:29:51","2025/8/8 11:31:40",NULL,NULL,"<p style='color:red;'>不正解！もう一度回答してください。</p>",NULL,NULL,NULL,NULL
NULL,"classification_trial","html-button-response","16","50268","0.0-2.0-4.1-0.1","5127776","structured","2025/8/8 11:29:51","2025/8/8 11:31:40",NULL,"1283","<p>頭の中の話を形にしている。</p>","3","出力","頭の中の話を形にしている。",
NULL,"feedback_trial","html-keyboard-response","17","50769","0.0-2.0-4.1-1.1","5127776","structured","2025/8/8 11:29:51","2025/8/8 11:31:40",NULL,NULL,"<p style='color:red;'>不正解！もう一度回答してください。</p>",NULL,NULL,NULL,NULL
NULL,"classification_trial","html-button-response","18","52715","0.0-2.0-4.2-0.2","5127776","structured","2025/8/8 11:29:51","2025/8/8 11:31:40",NULL,"1945","<p>頭の中の話を形にしている。</p>","1","出力","頭の中の話を形にしている。","1"
NULL,"feedback_trial","html-keyboard-response","19","53215","0.0-2.0-4.2-1.2","5127776","structured","2025/8/8 11:29:51","2025/8/8 11:31:40",NULL,NULL,"<p style='color:green;'>正解！</p>",NULL,NULL,NULL,NULL
NULL,"classification_trial","html-button-response","20","54332","0.0-2.0-5.0-0.0","5127776","structured","2025/8/8 11:29:51","2025/8/8 11:31:40",NULL,"1116","<p>思いついた文をそのまま書いている。</p>","1","出力","思いついた文をそのまま書いている。","1"
NULL,"feedback_trial","html-keyboard-response","21","54833","0.0-2.0-5.0-1.0","5127776","structured","2025/8/8 11:29:51","2025/8/8 11:31:40",NULL,NULL,"<p style='color:green;'>正解！</p>",NULL,NULL,NULL,NULL
NULL,"classification_trial","html-button-response","22","55911","0.0-2.0-6.0-0.0","5127776","structured","2025/8/8 11:29:51","2025/8/8 11:31:40",NULL,"1077","<p>思いついた言葉をすぐに書いている。</p>","1","出力","思いついた言葉をすぐに書いている。","1"
NULL,"feedback_trial","html-keyboard-response","23","56411","0.0-2.0-6.0-1.0","5127776","structured","2025/8/8 11:29:51","2025/8/8 11:31:40",NULL,NULL,"<p style='color:green;'>正解！</p>",NULL,NULL,NULL,NULL
NULL,"classification_trial","html-button-response","24","57625","0.0-2.0-7.0-0.0","5127776","structured","2025/8/8 11:29:51","2025/8/8 11:31:40",NULL,"1213","<p>文章が変だったので書き直した。</p>","2","修正","文章が変だったので書き直した。","1"
NULL,"feedback_trial","html-keyboard-response","25","58126","0.0-2.0-7.0-1.0","5127776","structured","2025/8/8 11:29:51","2025/8/8 11:31:40",NULL,NULL,"<p style='color:green;'>正解！</p>",NULL,NULL,NULL,NULL
NULL,"classification_trial","html-button-response","26","59757","0.0-2.0-8.0-0.0","5127776","structured","2025/8/8 11:29:51","2025/8/8 11:31:40",NULL,"1630","<p>何も思いつかずに机の上を眺めていた。</p>","3","その他","何も思いつかずに机の上を眺めていた。","1"
NULL,"feedback_trial","html-keyboard-response","27","60266","0.0-2.0-8.0-1.0","5127776","structured","2025/8/8 11:29:51","2025/8/8 11:31:40",NULL,NULL,"<p style='color:green;'>正解！</p>",NULL,NULL,NULL,NULL
NULL,"classification_trial","html-button-response","28","61362","0.0-2.0-9.0-0.0","5127776","structured","2025/8/8 11:29:51","2025/8/8 11:31:40",NULL,"1095","<p>文章をどんどんタイピングしている。</p>","1","出力","文章をどんどんタイピングしている。","1"
NULL,"feedback_trial","html-keyboard-response","29","61863","0.0-2.0-9.0-1.0","5127776","structured","2025/8/8 11:29:51","2025/8/8 11:31:40",NULL,NULL,"<p style='color:green;'>正解！</p>",NULL,NULL,NULL,NULL
NULL,"classification_trial","html-button-response","30","63168","0.0-2.0-10.0-0.0","5127776","structured","2025/8/8 11:29:51","2025/8/8 11:31:40",NULL,"1304","<p>「ある日」という言葉を打ち込んでいる。</p>","1","出力","「ある日」という言葉を打ち込んでいる。","1"
NULL,"feedback_trial","html-keyboard-response","31","63669","0.0-2.0-10.0-1.0","5127776","structured","2025/8/8 11:29:51","2025/8/8 11:31:40",NULL,NULL,"<p style='color:green;'>正解！</p>",NULL,NULL,NULL,NULL
NULL,"classification_trial","html-button-response","32","65044","0.0-2.0-11.0-0.0","5127776","structured","2025/8/8 11:29:51","2025/8/8 11:31:40",NULL,"1375","<p>表現をより自然に直している。</p>","2","修正","表現をより自然に直している。","1"
NULL,"feedback_trial","html-keyboard-response","33","65545","0.0-2.0-11.0-1.0","5127776","structured","2025/8/8 11:29:51","2025/8/8 11:31:40",NULL,NULL,"<p style='color:green;'>正解！</p>",NULL,NULL,NULL,NULL
NULL,"classification_trial","html-button-response","34","67192","0.0-2.0-12.0-0.0","5127776","structured","2025/8/8 11:29:51","2025/8/8 11:31:40",NULL,"1647","<p>キャラクターの名前を入力している。</p>","1","出力","キャラクターの名前を入力している。","1"
NULL,"feedback_trial","html-keyboard-response","35","67693","0.0-2.0-12.0-1.0","5127776","structured","2025/8/8 11:29:51","2025/8/8 11:31:40",NULL,NULL,"<p style='color:green;'>正解！</p>",NULL,NULL,NULL,NULL
NULL,"classification_trial","html-button-response","36","68797","0.0-2.0-13.0-0.0","5127776","structured","2025/8/8 11:29:51","2025/8/8 11:31:40",NULL,"1103","<p>話のつながりがおかしいので直した。</p>","2","修正","話のつながりがおかしいので直した。","1"
NULL,"feedback_trial","html-keyboard-response","37","69298","0.0-2.0-13.0-1.0","5127776","structured","2025/8/8 11:29:51","2025/8/8 11:31:40",NULL,NULL,"<p style='color:green;'>正解！</p>",NULL,NULL,NULL,NULL
NULL,"classification_trial","html-button-response","38","70425","0.0-2.0-14.0-0.0","5127776","structured","2025/8/8 11:29:51","2025/8/8 11:31:40",NULL,"1126","<p>読みにくい部分を調整している。</p>","2","修正","読みにくい部分を調整している。","1"
NULL,"feedback_trial","html-keyboard-response","39","70926","0.0-2.0-14.0-1.0","5127776","structured","2025/8/8 11:29:51","2025/8/8 11:31:40",NULL,NULL,"<p style='color:green;'>正解！</p>",NULL,NULL,NULL,NULL
NULL,"classification_trial","html-button-response","40","73002","0.0-2.0-15.0-0.0","5127776","structured","2025/8/8 11:29:51","2025/8/8 11:31:40",NULL,"2075","<p>どんな登場人物がいいか悩んでいる。</p>","0","プランニング","どんな登場人物がいいか悩んでいる。","1"
NULL,"feedback_trial","html-keyboard-response","41","73503","0.0-2.0-15.0-1.0","5127776","structured","2025/8/8 11:29:51","2025/8/8 11:31:40",NULL,NULL,"<p style='color:green;'>正解！</p>",NULL,NULL,NULL,NULL
NULL,"classification_trial","html-button-response","42","74757","0.0-2.0-16.0-0.0","5127776","structured","2025/8/8 11:29:51","2025/8/8 11:31:40",NULL,"1254","<p>物語の終わり方を考えている。</p>","0","プランニング","物語の終わり方を考えている。","1"
NULL,"feedback_trial","html-keyboard-response","43","75258","0.0-2.0-16.0-1.0","5127776","structured","2025/8/8 11:29:51","2025/8/8 11:31:40",NULL,NULL,"<p style='color:green;'>正解！</p>",NULL,NULL,NULL,NULL
NULL,"classification_trial","html-button-response","44","77219","0.0-2.0-17.0-0.0","5127776","structured","2025/8/8 11:29:51","2025/8/8 11:31:40",NULL,"1960","<p>タイマーの残り時間を確認した。</p>","3","その他","タイマーの残り時間を確認した。","1"
NULL,"feedback_trial","html-keyboard-response","45","77720","0.0-2.0-17.0-1.0","5127776","structured","2025/8/8 11:29:51","2025/8/8 11:31:40",NULL,NULL,"<p style='color:green;'>正解！</p>",NULL,NULL,NULL,NULL
NULL,"classification_trial","html-button-response","46","79272","0.0-2.0-18.0-0.0","5127776","structured","2025/8/8 11:29:51","2025/8/8 11:31:40",NULL,"1551","<p>時系列を整理している。</p>","3","プランニング","時系列を整理している。",
NULL,"feedback_trial","html-keyboard-response","47","79773","0.0-2.0-18.0-1.0","5127776","structured","2025/8/8 11:29:51","2025/8/8 11:31:40",NULL,NULL,"<p style='color:red;'>不正解！もう一度回答してください。</p>",NULL,NULL,NULL,NULL
NULL,"classification_trial","html-button-response","48","80109","0.0-2.0-18.1-0.1","5127776","structured","2025/8/8 11:29:51","2025/8/8 11:31:40",NULL,"335","<p>時系列を整理している。</p>","0","プランニング","時系列を整理している。","1"
NULL,"feedback_trial","html-keyboard-response","49","80610","0.0-2.0-18.1-1.1","5127776","structured","2025/8/8 11:29:51","2025/8/8 11:31:40",NULL,NULL,"<p style='color:green;'>正解！</p>",NULL,NULL,NULL,NULL
NULL,"classification_trial","html-button-response","50","82167","0.0-2.0-19.0-0.0","5127776","structured","2025/8/8 11:29:51","2025/8/8 11:31:40",NULL,"1556","<p>何となく窓の外を見ていた。</p>","3","その他","何となく窓の外を見ていた。","1"
NULL,"feedback_trial","html-keyboard-response","51","82668","0.0-2.0-19.0-1.0","5127776","structured","2025/8/8 11:29:51","2025/8/8 11:31:40",NULL,NULL,"<p style='color:green;'>正解！</p>",NULL,NULL,NULL,NULL
NULL,"classification_trial","html-button-response","52","84298","0.0-2.0-20.0-0.0","5127776","structured","2025/8/8 11:29:51","2025/8/8 11:31:40",NULL,"1629","<p>ストレッチをして体をほぐした。</p>","3","その他","ストレッチをして体をほぐした。","1"
NULL,"feedback_trial","html-keyboard-response","53","84799","0.0-2.0-20.0-1.0","5127776","structured","2025/8/8 11:29:51","2025/8/8 11:31:40",NULL,NULL,"<p style='color:green;'>正解！</p>",NULL,NULL,NULL,NULL
NULL,"classification_trial","html-button-response","54","86255","0.0-2.0-21.0-0.0","5127776","structured","2025/8/8 11:29:51","2025/8/8 11:31:40",NULL,"1455","<p>この話の舞台をどうするか決めている。</p>","0","プランニング","この話の舞台をどうするか決めている。","1"
NULL,"feedback_trial","html-keyboard-response","55","86757","0.0-2.0-21.0-1.0","5127776","structured","2025/8/8 11:29:51","2025/8/8 11:31:40",NULL,NULL,"<p style='color:green;'>正解！</p>",NULL,NULL,NULL,NULL
NULL,"classification_trial","html-button-response","56","89856","0.0-2.0-22.0-0.0","5127776","structured","2025/8/8 11:29:51","2025/8/8 11:31:40",NULL,"3098","<p>自分の書いた文字を眺めていたが、何も考えていなかった。</p>","3","その他","自分の書いた文字を眺めていたが、何も考えていなかった。","1"
NULL,"feedback_trial","html-keyboard-response","57","90358","0.0-2.0-22.0-1.0","5127776","structured","2025/8/8 11:29:51","2025/8/8 11:31:40",NULL,NULL,"<p style='color:green;'>正解！</p>",NULL,NULL,NULL,NULL
NULL,"classification_trial","html-button-response","58","92731","0.0-2.0-23.0-0.0","5127776","structured","2025/8/8 11:29:51","2025/8/8 11:31:40",NULL,"2372","<p>書くことをやめて指を回していた。</p>","1","その他","書くことをやめて指を回していた。",
NULL,"feedback_trial","html-keyboard-response","59","93231","0.0-2.0-23.0-1.0","5127776","structured","2025/8/8 11:29:51","2025/8/8 11:31:40",NULL,NULL,"<p style='color:red;'>不正解！もう一度回答してください。</p>",NULL,NULL,NULL,NULL
NULL,"classification_trial","html-button-response","60","94677","0.0-2.0-23.1-0.1","5127776","structured","2025/8/8 11:29:51","2025/8/8 11:31:40",NULL,"1445","<p>書くことをやめて指を回していた。</p>","3","その他","書くことをやめて指を回していた。","1"
NULL,"feedback_trial","html-keyboard-response","61","95178","0.0-2.0-23.1-1.1","5127776","structured","2025/8/8 11:29:51","2025/8/8 11:31:40",NULL,NULL,"<p style='color:green;'>正解！</p>",NULL,NULL,NULL,NULL
NULL,"classification_trial","html-button-response","62","96687","0.0-2.0-24.0-0.0","5127776","structured","2025/8/8 11:29:51","2025/8/8 11:31:40",NULL,"1509","<p>誤字脱字を確認するために、本文を読み直している。</p>","2","修正","誤字脱字を確認するために、本文を読み直している。","1"
NULL,"feedback_trial","html-keyboard-response","63","97187","0.0-2.0-24.0-1.0","5127776","structured","2025/8/8 11:29:51","2025/8/8 11:31:40",NULL,NULL,"<p style='color:green;'>正解！</p>",NULL,NULL,NULL,NULL
NULL,"classification_trial","html-button-response","64","98236","0.0-2.0-25.0-0.0","5127776","structured","2025/8/8 11:29:51","2025/8/8 11:31:40",NULL,"1049","<p>話の構成を考えている。</p>","0","プランニング","話の構成を考えている。","1"
NULL,"feedback_trial","html-keyboard-response","65","98737","0.0-2.0-25.0-1.0","5127776","structured","2025/8/8 11:29:51","2025/8/8 11:31:40",NULL,NULL,"<p style='color:green;'>正解！</p>",NULL,NULL,NULL,NULL
NULL,"classification_trial","html-button-response","66","99874","0.0-2.0-26.0-0.0","5127776","structured","2025/8/8 11:29:51","2025/8/8 11:31:40",NULL,"1136","<p>テーマに合った話を作ろうとしている。</p>","0","プランニング","テーマに合った話を作ろうとしている。","1"
NULL,"feedback_trial","html-keyboard-response","67","100374","0.0-2.0-26.0-1.0","5127776","structured","2025/8/8 11:29:51","2025/8/8 11:31:40",NULL,NULL,"<p style='color:green;'>正解！</p>",NULL,NULL,NULL,NULL
NULL,"classification_trial","html-button-response","68","101298","0.0-2.0-27.0-0.0","5127776","structured","2025/8/8 11:29:51","2025/8/8 11:31:40",NULL,"923","<p>誤字を修正した。</p>","2","修正","誤字を修正した。","1"
NULL,"feedback_trial","html-keyboard-response","69","101799","0.0-2.0-27.0-1.0","5127776","structured","2025/8/8 11:29:51","2025/8/8 11:31:40",NULL,NULL,"<p style='color:green;'>正解！</p>",NULL,NULL,NULL,NULL
NULL,"task_description","html-keyboard-response","70","108602","0.0-3.0","5127776","structured","2025/8/8 11:29:51","2025/8/8 11:31:40",NULL,"6802","
      <p style=""text-align: left"">本課題では、<strong>あなたが考えたオリジナルの面白い物語を書いていただきます。</strong></p>
      <p style=""text-align: left"">その時に、いま覚えてもらった4種類の思考内容についてもお尋ねします。</p>
      <p><br><br></p>
      <p style=""text-align: left"">次に、本課題の前に行ってもらう課題の説明に移ります。準備ができたらスペースキーを押してください。</p>
    "," ",NULL,NULL,NULL
"1","FullScreen","fullscreen","0","23555","0.0-0.0","3124577","control","2025/8/8 11:28:54","2025/8/8 11:31:41",NULL,NULL,NULL,NULL,NULL,NULL,NULL
NULL,"category_inst_tl","instructions","1","75734","0.0-1.0","3124577","control","2025/8/8 11:28:54","2025/8/8 11:31:41","Array","52178",NULL,NULL,NULL,NULL,NULL
NULL,"classification_trial","html-button-response","2","79238","0.0-2.0-0.0-0.0","3124577","control","2025/8/8 11:28:54","2025/8/8 11:31:41",NULL,"3504","<p>思いついた文をそのまま書いている。</p>","1","出力","思いついた文をそのまま書いている。","1"
NULL,"feedback_trial","html-keyboard-response","3","79740","0.0-2.0-0.0-1.0","3124577","control","2025/8/8 11:28:54","2025/8/8 11:31:41",NULL,NULL,"<p style='color:green;'>正解！</p>",NULL,NULL,NULL,NULL
NULL,"classification_trial","html-button-response","4","82838","0.0-2.0-1.0-0.0","3124577","control","2025/8/8 11:28:54","2025/8/8 11:31:41",NULL,"3097","<p>キーボードで文章を入力している。</p>","1","出力","キーボードで文章を入力している。","1"
NULL,"feedback_trial","html-keyboard-response","5","83339","0.0-2.0-1.0-1.0","3124577","control","2025/8/8 11:28:54","2025/8/8 11:31:41",NULL,NULL,"<p style='color:green;'>正解！</p>",NULL,NULL,NULL,NULL
NULL,"classification_trial","html-button-response","6","85726","0.0-2.0-2.0-0.0","3124577","control","2025/8/8 11:28:54","2025/8/8 11:31:41",NULL,"2386","<p>表現をより自然に直している。</p>","2","修正","表現をより自然に直している。","1"
NULL,"feedback_trial","html-keyboard-response","7","86228","0.0-2.0-2.0-1.0","3124577","control","2025/8/8 11:28:54","2025/8/8 11:31:41",NULL,NULL,"<p style='color:green;'>正解！</p>",NULL,NULL,NULL,NULL
NULL,"classification_trial","html-button-response","8","88478","0.0-2.0-3.0-0.0","3124577","control","2025/8/8 11:28:54","2025/8/8 11:31:41",NULL,"2250","<p>全体の流れを思い描いている。</p>","0","プランニング","全体の流れを思い描いている。","1"
NULL,"feedback_trial","html-keyboard-response","9","88980","0.0-2.0-3.0-1.0","3124577","control","2025/8/8 11:28:54","2025/8/8 11:31:41",NULL,NULL,"<p style='color:green;'>正解！</p>",NULL,NULL,NULL,NULL
NULL,"classification_trial","html-button-response","10","91039","0.0-2.0-4.0-0.0","3124577","control","2025/8/8 11:28:54","2025/8/8 11:31:41",NULL,"2058","<p>読みにくい部分を調整している。</p>","2","修正","読みにくい部分を調整している。","1"
NULL,"feedback_trial","html-keyboard-response","11","91539","0.0-2.0-4.0-1.0","3124577","control","2025/8/8 11:28:54","2025/8/8 11:31:41",NULL,NULL,"<p style='color:green;'>正解！</p>",NULL,NULL,NULL,NULL
NULL,"classification_trial","html-button-response","12","93414","0.0-2.0-5.0-0.0","3124577","control","2025/8/8 11:28:54","2025/8/8 11:31:41",NULL,"1874","<p>時系列を整理している。</p>","2","プランニング","時系列を整理している。",
NULL,"feedback_trial","html-keyboard-response","13","93917","0.0-2.0-5.0-1.0","3124577","control","2025/8/8 11:28:54","2025/8/8 11:31:41",NULL,NULL,"<p style='color:red;'>不正解！もう一度回答してください。</p>",NULL,NULL,NULL,NULL
NULL,"classification_trial","html-button-response","14","96014","0.0-2.0-5.1-0.1","3124577","control","2025/8/8 11:28:54","2025/8/8 11:31:41",NULL,"2097","<p>時系列を整理している。</p>","0","プランニング","時系列を整理している。","1"
NULL,"feedback_trial","html-keyboard-response","15","96516","0.0-2.0-5.1-1.1","3124577","control","2025/8/8 11:28:54","2025/8/8 11:31:41",NULL,NULL,"<p style='color:green;'>正解！</p>",NULL,NULL,NULL,NULL
NULL,"classification_trial","html-button-response","16","99038","0.0-2.0-6.0-0.0","3124577","control","2025/8/8 11:28:54","2025/8/8 11:31:41",NULL,"2522","<p>キャラクターの名前を入力している。</p>","1","出力","キャラクターの名前を入力している。","1"
NULL,"feedback_trial","html-keyboard-response","17","99540","0.0-2.0-6.0-1.0","3124577","control","2025/8/8 11:28:54","2025/8/8 11:31:41",NULL,NULL,"<p style='color:green;'>正解！</p>",NULL,NULL,NULL,NULL
NULL,"classification_trial","html-button-response","18","101854","0.0-2.0-7.0-0.0","3124577","control","2025/8/8 11:28:54","2025/8/8 11:31:41",NULL,"2313","<p>話のつながりがおかしいので直した。</p>","2","修正","話のつながりがおかしいので直した。","1"
NULL,"feedback_trial","html-keyboard-response","19","102355","0.0-2.0-7.0-1.0","3124577","control","2025/8/8 11:28:54","2025/8/8 11:31:41",NULL,NULL,"<p style='color:green;'>正解！</p>",NULL,NULL,NULL,NULL
NULL,"classification_trial","html-button-response","20","104174","0.0-2.0-8.0-0.0","3124577","control","2025/8/8 11:28:54","2025/8/8 11:31:41",NULL,"1819","<p>話の構成を考えている。</p>","0","プランニング","話の構成を考えている。","1"
NULL,"feedback_trial","html-keyboard-response","21","104676","0.0-2.0-8.0-1.0","3124577","control","2025/8/8 11:28:54","2025/8/8 11:31:41",NULL,NULL,"<p style='color:green;'>正解！</p>",NULL,NULL,NULL,NULL
NULL,"classification_trial","html-button-response","22","106646","0.0-2.0-9.0-0.0","3124577","control","2025/8/8 11:28:54","2025/8/8 11:31:41",NULL,"1969","<p>テーマに合った話を作ろうとしている。</p>","0","プランニング","テーマに合った話を作ろうとしている。","1"
NULL,"feedback_trial","html-keyboard-response","23","107148","0.0-2.0-9.0-1.0","3124577","control","2025/8/8 11:28:54","2025/8/8 11:31:41",NULL,NULL,"<p style='color:green;'>正解！</p>",NULL,NULL,NULL,NULL
NULL,"classification_trial","html-button-response","24","109822","0.0-2.0-10.0-0.0","3124577","control","2025/8/8 11:28:54","2025/8/8 11:31:41",NULL,"2673","<p>どんな登場人物がいいか悩んでいる。</p>","0","プランニング","どんな登場人物がいいか悩んでいる。","1"
NULL,"feedback_trial","html-keyboard-response","25","110323","0.0-2.0-10.0-1.0","3124577","control","2025/8/8 11:28:54","2025/8/8 11:31:41",NULL,NULL,"<p style='color:green;'>正解！</p>",NULL,NULL,NULL,NULL
NULL,"classification_trial","html-button-response","26","113318","0.0-2.0-11.0-0.0","3124577","control","2025/8/8 11:28:54","2025/8/8 11:31:41",NULL,"2994","<p>書くことをやめて指を回していた。</p>","3","その他","書くことをやめて指を回していた。","1"
NULL,"feedback_trial","html-keyboard-response","27","113819","0.0-2.0-11.0-1.0","3124577","control","2025/8/8 11:28:54","2025/8/8 11:31:41",NULL,NULL,"<p style='color:green;'>正解！</p>",NULL,NULL,NULL,NULL
NULL,"classification_trial","html-button-response","28","115238","0.0-2.0-12.0-0.0","3124577","control","2025/8/8 11:28:54","2025/8/8 11:31:41",NULL,"1419","<p>ストレッチをして体をほぐした。</p>","3","その他","ストレッチをして体をほぐした。","1"
NULL,"feedback_trial","html-keyboard-response","29","115739","0.0-2.0-12.0-1.0","3124577","control","2025/8/8 11:28:54","2025/8/8 11:31:41",NULL,NULL,"<p style='color:green;'>正解！</p>",NULL,NULL,NULL,NULL
NULL,"classification_trial","html-button-response","30","117342","0.0-2.0-13.0-0.0","3124577","control","2025/8/8 11:28:54","2025/8/8 11:31:41",NULL,"1603","<p>内容を読み返して見直している。</p>","2","修正","内容を読み返して見直している。","1"
NULL,"feedback_trial","html-keyboard-response","31","117844","0.0-2.0-13.0-1.0","3124577","control","2025/8/8 11:28:54","2025/8/8 11:31:41",NULL,NULL,"<p style='color:green;'>正解！</p>",NULL,NULL,NULL,NULL
NULL,"classification_trial","html-button-response","32","119710","0.0-2.0-14.0-0.0","3124577","control","2025/8/8 11:28:54","2025/8/8 11:31:41",NULL,"1866","<p>物語の終わり方を考えている。</p>","0","プランニング","物語の終わり方を考えている。","1"
NULL,"feedback_trial","html-keyboard-response","33","120211","0.0-2.0-14.0-1.0","3124577","control","2025/8/8 11:28:54","2025/8/8 11:31:41",NULL,NULL,"<p style='color:green;'>正解！</p>",NULL,NULL,NULL,NULL
NULL,"classification_trial","html-button-response","34","121799","0.0-2.0-15.0-0.0","3124577","control","2025/8/8 11:28:54","2025/8/8 11:31:41",NULL,"1587","<p>文章が変だったので書き直した。</p>","2","修正","文章が変だったので書き直した。","1"
NULL,"feedback_trial","html-keyboard-response","35","122300","0.0-2.0-15.0-1.0","3124577","control","2025/8/8 11:28:54","2025/8/8 11:31:41",NULL,NULL,"<p style='color:green;'>正解！</p>",NULL,NULL,NULL,NULL
NULL,"classification_trial","html-button-response","36","123862","0.0-2.0-16.0-0.0","3124577","control","2025/8/8 11:28:54","2025/8/8 11:31:41",NULL,"1561","<p>目を閉じてぼーっとしていた。</p>","3","その他","目を閉じてぼーっとしていた。","1"
NULL,"feedback_trial","html-keyboard-response","37","124363","0.0-2.0-16.0-1.0","3124577","control","2025/8/8 11:28:54","2025/8/8 11:31:41",NULL,NULL,"<p style='color:green;'>正解！</p>",NULL,NULL,NULL,NULL
NULL,"classification_trial","html-button-response","38","126022","0.0-2.0-17.0-0.0","3124577","control","2025/8/8 11:28:54","2025/8/8 11:31:41",NULL,"1658","<p>何も思いつかずに机の上を眺めていた。</p>","3","その他","何も思いつかずに机の上を眺めていた。","1"
NULL,"feedback_trial","html-keyboard-response","39","126523","0.0-2.0-17.0-1.0","3124577","control","2025/8/8 11:28:54","2025/8/8 11:31:41",NULL,NULL,"<p style='color:green;'>正解！</p>",NULL,NULL,NULL,NULL
NULL,"classification_trial","html-button-response","40","128694","0.0-2.0-18.0-0.0","3124577","control","2025/8/8 11:28:54","2025/8/8 11:31:41",NULL,"2170","<p>タイマーの残り時間を確認した。</p>","3","その他","タイマーの残り時間を確認した。","1"
NULL,"feedback_trial","html-keyboard-response","41","129196","0.0-2.0-18.0-1.0","3124577","control","2025/8/8 11:28:54","2025/8/8 11:31:41",NULL,NULL,"<p style='color:green;'>正解！</p>",NULL,NULL,NULL,NULL
NULL,"classification_trial","html-button-response","42","131038","0.0-2.0-19.0-0.0","3124577","control","2025/8/8 11:28:54","2025/8/8 11:31:41",NULL,"1842","<p>文章をどんどんタイピングしている。</p>","1","出力","文章をどんどんタイピングしている。","1"
NULL,"feedback_trial","html-keyboard-response","43","131539","0.0-2.0-19.0-1.0","3124577","control","2025/8/8 11:28:54","2025/8/8 11:31:41",NULL,NULL,"<p style='color:green;'>正解！</p>",NULL,NULL,NULL,NULL
NULL,"classification_trial","html-button-response","44","133342","0.0-2.0-20.0-0.0","3124577","control","2025/8/8 11:28:54","2025/8/8 11:31:41",NULL,"1803","<p>「ある日」という言葉を打ち込んでいる。</p>","1","出力","「ある日」という言葉を打ち込んでいる。","1"
NULL,"feedback_trial","html-keyboard-response","45","133843","0.0-2.0-20.0-1.0","3124577","control","2025/8/8 11:28:54","2025/8/8 11:31:41",NULL,NULL,"<p style='color:green;'>正解！</p>",NULL,NULL,NULL,NULL
NULL,"classification_trial","html-button-response","46","135494","0.0-2.0-21.0-0.0","3124577","control","2025/8/8 11:28:54","2025/8/8 11:31:41",NULL,"1651","<p>何となく窓の外を見ていた。</p>","3","その他","何となく窓の外を見ていた。","1"
NULL,"feedback_trial","html-keyboard-response","47","135995","0.0-2.0-21.0-1.0","3124577","control","2025/8/8 11:28:54","2025/8/8 11:31:41",NULL,NULL,"<p style='color:green;'>正解！</p>",NULL,NULL,NULL,NULL
NULL,"classification_trial","html-button-response","48","138846","0.0-2.0-22.0-0.0","3124577","control","2025/8/8 11:28:54","2025/8/8 11:31:41",NULL,"2850","<p>思いついた言葉をすぐに書いている。</p>","1","出力","思いついた言葉をすぐに書いている。","1"
NULL,"feedback_trial","html-keyboard-response","49","139348","0.0-2.0-22.0-1.0","3124577","control","2025/8/8 11:28:54","2025/8/8 11:31:41",NULL,NULL,"<p style='color:green;'>正解！</p>",NULL,NULL,NULL,NULL
NULL,"classification_trial","html-button-response","50","142670","0.0-2.0-23.0-0.0","3124577","control","2025/8/8 11:28:54","2025/8/8 11:31:41",NULL,"3322","<p>頭の中の話を形にしている。</p>","0","出力","頭の中の話を形にしている。",
NULL,"feedback_trial","html-keyboard-response","51","143171","0.0-2.0-23.0-1.0","3124577","control","2025/8/8 11:28:54","2025/8/8 11:31:41",NULL,NULL,"<p style='color:red;'>不正解！もう一度回答してください。</p>",NULL,NULL,NULL,NULL
NULL,"classification_trial","html-button-response","52","145830","0.0-2.0-23.1-0.1","3124577","control","2025/8/8 11:28:54","2025/8/8 11:31:41",NULL,"2658","<p>頭の中の話を形にしている。</p>","1","出力","頭の中の話を形にしている。","1"
NULL,"feedback_trial","html-keyboard-response","53","146331","0.0-2.0-23.1-1.1","3124577","control","2025/8/8 11:28:54","2025/8/8 11:31:41",NULL,NULL,"<p style='color:green;'>正解！</p>",NULL,NULL,NULL,NULL
NULL,"classification_trial","html-button-response","54","149654","0.0-2.0-24.0-0.0","3124577","control","2025/8/8 11:28:54","2025/8/8 11:31:41",NULL,"3323","<p>自分の書いた文字を眺めていたが、何も考えていなかった。</p>","3","その他","自分の書いた文字を眺めていたが、何も考えていなかった。","1"
NULL,"feedback_trial","html-keyboard-response","55","150156","0.0-2.0-24.0-1.0","3124577","control","2025/8/8 11:28:54","2025/8/8 11:31:41",NULL,NULL,"<p style='color:green;'>正解！</p>",NULL,NULL,NULL,NULL
NULL,"classification_trial","html-button-response","56","152646","0.0-2.0-25.0-0.0","3124577","control","2025/8/8 11:28:54","2025/8/8 11:31:41",NULL,"2490","<p>誤字脱字を確認するために、本文を読み直している。</p>","2","修正","誤字脱字を確認するために、本文を読み直している。","1"
NULL,"feedback_trial","html-keyboard-response","57","153147","0.0-2.0-25.0-1.0","3124577","control","2025/8/8 11:28:54","2025/8/8 11:31:41",NULL,NULL,"<p style='color:green;'>正解！</p>",NULL,NULL,NULL,NULL
NULL,"classification_trial","html-button-response","58","154390","0.0-2.0-26.0-0.0","3124577","control","2025/8/8 11:28:54","2025/8/8 11:31:41",NULL,"1243","<p>誤字を修正した。</p>","2","修正","誤字を修正した。","1"
NULL,"feedback_trial","html-keyboard-response","59","154891","0.0-2.0-26.0-1.0","3124577","control","2025/8/8 11:28:54","2025/8/8 11:31:41",NULL,NULL,"<p style='color:green;'>正解！</p>",NULL,NULL,NULL,NULL
NULL,"classification_trial","html-button-response","60","156990","0.0-2.0-27.0-0.0","3124577","control","2025/8/8 11:28:54","2025/8/8 11:31:41",NULL,"2098","<p>この話の舞台をどうするか決めている。</p>","0","プランニング","この話の舞台をどうするか決めている。","1"
NULL,"feedback_trial","html-keyboard-response","61","157492","0.0-2.0-27.0-1.0","3124577","control","2025/8/8 11:28:54","2025/8/8 11:31:41",NULL,NULL,"<p style='color:green;'>正解！</p>",NULL,NULL,NULL,NULL
NULL,"task_description","html-keyboard-response","62","166210","0.0-3.0","3124577","control","2025/8/8 11:28:54","2025/8/8 11:31:41",NULL,"8717","
      <p style=""text-align: left"">本課題では、<strong>あなたが考えたオリジナルの面白い物語を書いていただきます。</strong></p>
      <p style=""text-align: left"">その時に、いま覚えてもらった4種類の思考内容についてもお尋ねします。</p>
      <p><br><br></p>
      <p style=""text-align: left"">次に、本課題の前に行ってもらう課題の説明に移ります。準備ができたらスペースキーを押してください。</p>
    "," ",NULL,NULL,NULL
"1","FullScreen","fullscreen","0","4288","0.0-0.0","4270487","structured","2025/8/8 11:29:46","2025/8/8 11:31:47",NULL,NULL,NULL,NULL,NULL,NULL,NULL
NULL,"category_inst_tl","instructions","1","35449","0.0-1.0","4270487","structured","2025/8/8 11:29:46","2025/8/8 11:31:47","Array","31160",NULL,NULL,NULL,NULL,NULL
NULL,"classification_trial","html-button-response","2","38194","0.0-2.0-0.0-0.0","4270487","structured","2025/8/8 11:29:46","2025/8/8 11:31:47",NULL,"2744","<p>文章が変だったので書き直した。</p>","2","修正","文章が変だったので書き直した。","1"
NULL,"feedback_trial","html-keyboard-response","3","38697","0.0-2.0-0.0-1.0","4270487","structured","2025/8/8 11:29:46","2025/8/8 11:31:47",NULL,NULL,"<p style='color:green;'>正解！</p>",NULL,NULL,NULL,NULL
NULL,"classification_trial","html-button-response","4","42744","0.0-2.0-1.0-0.0","4270487","structured","2025/8/8 11:29:46","2025/8/8 11:31:47",NULL,"4046","<p>思いついた言葉をすぐに書いている。</p>","1","出力","思いついた言葉をすぐに書いている。","1"
NULL,"feedback_trial","html-keyboard-response","5","43245","0.0-2.0-1.0-1.0","4270487","structured","2025/8/8 11:29:46","2025/8/8 11:31:47",NULL,NULL,"<p style='color:green;'>正解！</p>",NULL,NULL,NULL,NULL
NULL,"classification_trial","html-button-response","6","45360","0.0-2.0-2.0-0.0","4270487","structured","2025/8/8 11:29:46","2025/8/8 11:31:47",NULL,"2114","<p>キーボードで文章を入力している。</p>","1","出力","キーボードで文章を入力している。","1"
NULL,"feedback_trial","html-keyboard-response","7","45861","0.0-2.0-2.0-1.0","4270487","structured","2025/8/8 11:29:46","2025/8/8 11:31:47",NULL,NULL,"<p style='color:green;'>正解！</p>",NULL,NULL,NULL,NULL
NULL,"classification_trial","html-button-response","8","47907","0.0-2.0-3.0-0.0","4270487","structured","2025/8/8 11:29:46","2025/8/8 11:31:47",NULL,"2044","<p>思いついた文をそのまま書いている。</p>","1","出力","思いついた文をそのまま書いている。","1"
NULL,"feedback_trial","html-keyboard-response","9","48409","0.0-2.0-3.0-1.0","4270487","structured","2025/8/8 11:29:46","2025/8/8 11:31:47",NULL,NULL,"<p style='color:green;'>正解！</p>",NULL,NULL,NULL,NULL
NULL,"classification_trial","html-button-response","10","49706","0.0-2.0-4.0-0.0","4270487","structured","2025/8/8 11:29:46","2025/8/8 11:31:47",NULL,"1296","<p>話の構成を考えている。</p>","0","プランニング","話の構成を考えている。","1"
NULL,"feedback_trial","html-keyboard-response","11","50208","0.0-2.0-4.0-1.0","4270487","structured","2025/8/8 11:29:46","2025/8/8 11:31:47",NULL,NULL,"<p style='color:green;'>正解！</p>",NULL,NULL,NULL,NULL
NULL,"classification_trial","html-button-response","12","51525","0.0-2.0-5.0-0.0","4270487","structured","2025/8/8 11:29:46","2025/8/8 11:31:47",NULL,"1316","<p>この話の舞台をどうするか決めている。</p>","0","プランニング","この話の舞台をどうするか決めている。","1"
NULL,"feedback_trial","html-keyboard-response","13","52031","0.0-2.0-5.0-1.0","4270487","structured","2025/8/8 11:29:46","2025/8/8 11:31:47",NULL,NULL,"<p style='color:green;'>正解！</p>",NULL,NULL,NULL,NULL
NULL,"classification_trial","html-button-response","14","54581","0.0-2.0-6.0-0.0","4270487","structured","2025/8/8 11:29:46","2025/8/8 11:31:47",NULL,"2548","<p>自分の書いた文字を眺めていたが、何も考えていなかった。</p>","3","その他","自分の書いた文字を眺めていたが、何も考えていなかった。","1"
NULL,"feedback_trial","html-keyboard-response","15","55082","0.0-2.0-6.0-1.0","4270487","structured","2025/8/8 11:29:46","2025/8/8 11:31:47",NULL,NULL,"<p style='color:green;'>正解！</p>",NULL,NULL,NULL,NULL
NULL,"classification_trial","html-button-response","16","58736","0.0-2.0-7.0-0.0","4270487","structured","2025/8/8 11:29:46","2025/8/8 11:31:47",NULL,"3653","<p>全体の流れを思い描いている。</p>","1","プランニング","全体の流れを思い描いている。",
NULL,"feedback_trial","html-keyboard-response","17","59238","0.0-2.0-7.0-1.0","4270487","structured","2025/8/8 11:29:46","2025/8/8 11:31:47",NULL,NULL,"<p style='color:red;'>不正解！もう一度回答してください。</p>",NULL,NULL,NULL,NULL
NULL,"classification_trial","html-button-response","18","62172","0.0-2.0-7.1-0.1","4270487","structured","2025/8/8 11:29:46","2025/8/8 11:31:47",NULL,"2934","<p>全体の流れを思い描いている。</p>","0","プランニング","全体の流れを思い描いている。","1"
NULL,"feedback_trial","html-keyboard-response","19","62675","0.0-2.0-7.1-1.1","4270487","structured","2025/8/8 11:29:46","2025/8/8 11:31:47",NULL,NULL,"<p style='color:green;'>正解！</p>",NULL,NULL,NULL,NULL
NULL,"classification_trial","html-button-response","20","64738","0.0-2.0-8.0-0.0","4270487","structured","2025/8/8 11:29:46","2025/8/8 11:31:47",NULL,"2062","<p>目を閉じてぼーっとしていた。</p>","3","その他","目を閉じてぼーっとしていた。","1"
NULL,"feedback_trial","html-keyboard-response","21","65240","0.0-2.0-8.0-1.0","4270487","structured","2025/8/8 11:29:46","2025/8/8 11:31:47",NULL,NULL,"<p style='color:green;'>正解！</p>",NULL,NULL,NULL,NULL
NULL,"classification_trial","html-button-response","22","66912","0.0-2.0-9.0-0.0","4270487","structured","2025/8/8 11:29:46","2025/8/8 11:31:47",NULL,"1672","<p>読みにくい部分を調整している。</p>","2","修正","読みにくい部分を調整している。","1"
NULL,"feedback_trial","html-keyboard-response","23","67422","0.0-2.0-9.0-1.0","4270487","structured","2025/8/8 11:29:46","2025/8/8 11:31:47",NULL,NULL,"<p style='color:green;'>正解！</p>",NULL,NULL,NULL,NULL
NULL,"classification_trial","html-button-response","24","68858","0.0-2.0-10.0-0.0","4270487","structured","2025/8/8 11:29:46","2025/8/8 11:31:47",NULL,"1435","<p>時系列を整理している。</p>","2","プランニング","時系列を整理している。",
NULL,"feedback_trial","html-keyboard-response","25","69365","0.0-2.0-10.0-1.0","4270487","structured","2025/8/8 11:29:46","2025/8/8 11:31:47",NULL,NULL,"<p style='color:red;'>不正解！もう一度回答してください。</p>",NULL,NULL,NULL,NULL
NULL,"classification_trial","html-button-response","26","72751","0.0-2.0-10.1-0.1","4270487","structured","2025/8/8 11:29:46","2025/8/8 11:31:47",NULL,"3385","<p>時系列を整理している。</p>","0","プランニング","時系列を整理している。","1"
NULL,"feedback_trial","html-keyboard-response","27","73253","0.0-2.0-10.1-1.1","4270487","structured","2025/8/8 11:29:46","2025/8/8 11:31:47",NULL,NULL,"<p style='color:green;'>正解！</p>",NULL,NULL,NULL,NULL
NULL,"classification_trial","html-button-response","28","75474","0.0-2.0-11.0-0.0","4270487","structured","2025/8/8 11:29:46","2025/8/8 11:31:47",NULL,"2220","<p>何も思いつかずに机の上を眺めていた。</p>","3","その他","何も思いつかずに机の上を眺めていた。","1"
NULL,"feedback_trial","html-keyboard-response","29","75975","0.0-2.0-11.0-1.0","4270487","structured","2025/8/8 11:29:46","2025/8/8 11:31:47",NULL,NULL,"<p style='color:green;'>正解！</p>",NULL,NULL,NULL,NULL
NULL,"classification_trial","html-button-response","30","77504","0.0-2.0-12.0-0.0","4270487","structured","2025/8/8 11:29:46","2025/8/8 11:31:47",NULL,"1528","<p>物語の終わり方を考えている。</p>","0","プランニング","物語の終わり方を考えている。","1"
NULL,"feedback_trial","html-keyboard-response","31","78006","0.0-2.0-12.0-1.0","4270487","structured","2025/8/8 11:29:46","2025/8/8 11:31:47",NULL,NULL,"<p style='color:green;'>正解！</p>",NULL,NULL,NULL,NULL
NULL,"classification_trial","html-button-response","32","79505","0.0-2.0-13.0-0.0","4270487","structured","2025/8/8 11:29:46","2025/8/8 11:31:47",NULL,"1499","<p>何となく窓の外を見ていた。</p>","3","その他","何となく窓の外を見ていた。","1"
NULL,"feedback_trial","html-keyboard-response","33","80006","0.0-2.0-13.0-1.0","4270487","structured","2025/8/8 11:29:46","2025/8/8 11:31:47",NULL,NULL,"<p style='color:green;'>正解！</p>",NULL,NULL,NULL,NULL
NULL,"classification_trial","html-button-response","34","81064","0.0-2.0-14.0-0.0","4270487","structured","2025/8/8 11:29:46","2025/8/8 11:31:47",NULL,"1057","<p>ストレッチをして体をほぐした。</p>","3","その他","ストレッチをして体をほぐした。","1"
NULL,"feedback_trial","html-keyboard-response","35","81575","0.0-2.0-14.0-1.0","4270487","structured","2025/8/8 11:29:46","2025/8/8 11:31:47",NULL,NULL,"<p style='color:green;'>正解！</p>",NULL,NULL,NULL,NULL
NULL,"classification_trial","html-button-response","36","83794","0.0-2.0-15.0-0.0","4270487","structured","2025/8/8 11:29:46","2025/8/8 11:31:47",NULL,"2217","<p>テーマに合った話を作ろうとしている。</p>","0","プランニング","テーマに合った話を作ろうとしている。","1"
NULL,"feedback_trial","html-keyboard-response","37","84296","0.0-2.0-15.0-1.0","4270487","structured","2025/8/8 11:29:46","2025/8/8 11:31:47",NULL,NULL,"<p style='color:green;'>正解！</p>",NULL,NULL,NULL,NULL
NULL,"classification_trial","html-button-response","38","86905","0.0-2.0-16.0-0.0","4270487","structured","2025/8/8 11:29:46","2025/8/8 11:31:47",NULL,"2607","<p>誤字脱字を確認するために、本文を読み直している。</p>","2","修正","誤字脱字を確認するために、本文を読み直している。","1"
NULL,"feedback_trial","html-keyboard-response","39","87405","0.0-2.0-16.0-1.0","4270487","structured","2025/8/8 11:29:46","2025/8/8 11:31:47",NULL,NULL,"<p style='color:green;'>正解！</p>",NULL,NULL,NULL,NULL
NULL,"classification_trial","html-button-response","40","88784","0.0-2.0-17.0-0.0","4270487","structured","2025/8/8 11:29:46","2025/8/8 11:31:47",NULL,"1378","<p>話のつながりがおかしいので直した。</p>","2","修正","話のつながりがおかしいので直した。","1"
NULL,"feedback_trial","html-keyboard-response","41","89285","0.0-2.0-17.0-1.0","4270487","structured","2025/8/8 11:29:46","2025/8/8 11:31:47",NULL,NULL,"<p style='color:green;'>正解！</p>",NULL,NULL,NULL,NULL
NULL,"classification_trial","html-button-response","42","91557","0.0-2.0-18.0-0.0","4270487","structured","2025/8/8 11:29:46","2025/8/8 11:31:47",NULL,"2271","<p>どんな登場人物がいいか悩んでいる。</p>","0","プランニング","どんな登場人物がいいか悩んでいる。","1"
NULL,"feedback_trial","html-keyboard-response","43","92059","0.0-2.0-18.0-1.0","4270487","structured","2025/8/8 11:29:46","2025/8/8 11:31:47",NULL,NULL,"<p style='color:green;'>正解！</p>",NULL,NULL,NULL,NULL
NULL,"classification_trial","html-button-response","44","93785","0.0-2.0-19.0-0.0","4270487","structured","2025/8/8 11:29:46","2025/8/8 11:31:47",NULL,"1724","<p>誤字を修正した。</p>","2","修正","誤字を修正した。","1"
NULL,"feedback_trial","html-keyboard-response","45","94286","0.0-2.0-19.0-1.0","4270487","structured","2025/8/8 11:29:46","2025/8/8 11:31:47",NULL,NULL,"<p style='color:green;'>正解！</p>",NULL,NULL,NULL,NULL
NULL,"classification_trial","html-button-response","46","95776","0.0-2.0-20.0-0.0","4270487","structured","2025/8/8 11:29:46","2025/8/8 11:31:47",NULL,"1489","<p>「ある日」という言葉を打ち込んでいる。</p>","1","出力","「ある日」という言葉を打ち込んでいる。","1"
NULL,"feedback_trial","html-keyboard-response","47","96286","0.0-2.0-20.0-1.0","4270487","structured","2025/8/8 11:29:46","2025/8/8 11:31:47",NULL,NULL,"<p style='color:green;'>正解！</p>",NULL,NULL,NULL,NULL
NULL,"classification_trial","html-button-response","48","98512","0.0-2.0-21.0-0.0","4270487","structured","2025/8/8 11:29:46","2025/8/8 11:31:47",NULL,"2224","<p>頭の中の話を形にしている。</p>","1","出力","頭の中の話を形にしている。","1"
NULL,"feedback_trial","html-keyboard-response","49","99012","0.0-2.0-21.0-1.0","4270487","structured","2025/8/8 11:29:46","2025/8/8 11:31:47",NULL,NULL,"<p style='color:green;'>正解！</p>",NULL,NULL,NULL,NULL
NULL,"classification_trial","html-button-response","50","102335","0.0-2.0-22.0-0.0","4270487","structured","2025/8/8 11:29:46","2025/8/8 11:31:47",NULL,"3322","<p>タイマーの残り時間を確認した。</p>","0","その他","タイマーの残り時間を確認した。",
NULL,"feedback_trial","html-keyboard-response","51","102837","0.0-2.0-22.0-1.0","4270487","structured","2025/8/8 11:29:46","2025/8/8 11:31:47",NULL,NULL,"<p style='color:red;'>不正解！もう一度回答してください。</p>",NULL,NULL,NULL,NULL
NULL,"classification_trial","html-button-response","52","103626","0.0-2.0-22.1-0.1","4270487","structured","2025/8/8 11:29:46","2025/8/8 11:31:47",NULL,"788","<p>タイマーの残り時間を確認した。</p>","3","その他","タイマーの残り時間を確認した。","1"
NULL,"feedback_trial","html-keyboard-response","53","104127","0.0-2.0-22.1-1.1","4270487","structured","2025/8/8 11:29:46","2025/8/8 11:31:47",NULL,NULL,"<p style='color:green;'>正解！</p>",NULL,NULL,NULL,NULL
NULL,"classification_trial","html-button-response","54","106072","0.0-2.0-23.0-0.0","4270487","structured","2025/8/8 11:29:46","2025/8/8 11:31:47",NULL,"1944","<p>内容を読み返して見直している。</p>","2","修正","内容を読み返して見直している。","1"
NULL,"feedback_trial","html-keyboard-response","55","106573","0.0-2.0-23.0-1.0","4270487","structured","2025/8/8 11:29:46","2025/8/8 11:31:47",NULL,NULL,"<p style='color:green;'>正解！</p>",NULL,NULL,NULL,NULL
NULL,"classification_trial","html-button-response","56","108313","0.0-2.0-24.0-0.0","4270487","structured","2025/8/8 11:29:46","2025/8/8 11:31:47",NULL,"1740","<p>表現をより自然に直している。</p>","2","修正","表現をより自然に直している。","1"
NULL,"feedback_trial","html-keyboard-response","57","108815","0.0-2.0-24.0-1.0","4270487","structured","2025/8/8 11:29:46","2025/8/8 11:31:47",NULL,NULL,"<p style='color:green;'>正解！</p>",NULL,NULL,NULL,NULL
NULL,"classification_trial","html-button-response","58","111281","0.0-2.0-25.0-0.0","4270487","structured","2025/8/8 11:29:46","2025/8/8 11:31:47",NULL,"2465","<p>書くことをやめて指を回していた。</p>","3","その他","書くことをやめて指を回していた。","1"
NULL,"feedback_trial","html-keyboard-response","59","111782","0.0-2.0-25.0-1.0","4270487","structured","2025/8/8 11:29:46","2025/8/8 11:31:47",NULL,NULL,"<p style='color:green;'>正解！</p>",NULL,NULL,NULL,NULL
NULL,"classification_trial","html-button-response","60","113648","0.0-2.0-26.0-0.0","4270487","structured","2025/8/8 11:29:46","2025/8/8 11:31:47",NULL,"1865","<p>文章をどんどんタイピングしている。</p>","1","出力","文章をどんどんタイピングしている。","1"
NULL,"feedback_trial","html-keyboard-response","61","114149","0.0-2.0-26.0-1.0","4270487","structured","2025/8/8 11:29:46","2025/8/8 11:31:47",NULL,NULL,"<p style='color:green;'>正解！</p>",NULL,NULL,NULL,NULL
NULL,"classification_trial","html-button-response","62","116680","0.0-2.0-27.0-0.0","4270487","structured","2025/8/8 11:29:46","2025/8/8 11:31:47",NULL,"2530","<p>キャラクターの名前を入力している。</p>","1","出力","キャラクターの名前を入力している。","1"
NULL,"feedback_trial","html-keyboard-response","63","117181","0.0-2.0-27.0-1.0","4270487","structured","2025/8/8 11:29:46","2025/8/8 11:31:47",NULL,NULL,"<p style='color:green;'>正解！</p>",NULL,NULL,NULL,NULL
NULL,"task_description","html-keyboard-response","64","121103","0.0-3.0","4270487","structured","2025/8/8 11:29:46","2025/8/8 11:31:47",NULL,"3922","
      <p style=""text-align: left"">本課題では、<strong>あなたが考えたオリジナルの面白い物語を書いていただきます。</strong></p>
      <p style=""text-align: left"">その時に、いま覚えてもらった4種類の思考内容についてもお尋ねします。</p>
      <p><br><br></p>
      <p style=""text-align: left"">次に、本課題の前に行ってもらう課題の説明に移ります。準備ができたらスペースキーを押してください。</p>
    "," ",NULL,NULL,NULL
"1","FullScreen","fullscreen","0","3874","0.0-0.0","6169624","outline","2025/8/8 11:30:17","2025/8/8 11:31:51",NULL,NULL,NULL,NULL,NULL,NULL,NULL
NULL,"category_inst_tl","instructions","1","22372","0.0-1.0","6169624","outline","2025/8/8 11:30:17","2025/8/8 11:31:51","Array","18496",NULL,NULL,NULL,NULL,NULL
NULL,"classification_trial","html-button-response","2","24720","0.0-2.0-0.0-0.0","6169624","outline","2025/8/8 11:30:17","2025/8/8 11:31:51",NULL,"2347","<p>テーマに合った話を作ろうとしている。</p>","0","プランニング","テーマに合った話を作ろうとしている。","1"
NULL,"feedback_trial","html-keyboard-response","3","25232","0.0-2.0-0.0-1.0","6169624","outline","2025/8/8 11:30:17","2025/8/8 11:31:51",NULL,NULL,"<p style='color:green;'>正解！</p>",NULL,NULL,NULL,NULL
NULL,"classification_trial","html-button-response","4","28080","0.0-2.0-1.0-0.0","6169624","outline","2025/8/8 11:30:17","2025/8/8 11:31:51",NULL,"2846","<p>どんな登場人物がいいか悩んでいる。</p>","0","プランニング","どんな登場人物がいいか悩んでいる。","1"
NULL,"feedback_trial","html-keyboard-response","5","28582","0.0-2.0-1.0-1.0","6169624","outline","2025/8/8 11:30:17","2025/8/8 11:31:51",NULL,NULL,"<p style='color:green;'>正解！</p>",NULL,NULL,NULL,NULL
NULL,"classification_trial","html-button-response","6","30932","0.0-2.0-2.0-0.0","6169624","outline","2025/8/8 11:30:17","2025/8/8 11:31:51",NULL,"2348","<p>何となく窓の外を見ていた。</p>","3","その他","何となく窓の外を見ていた。","1"
NULL,"feedback_trial","html-keyboard-response","7","31433","0.0-2.0-2.0-1.0","6169624","outline","2025/8/8 11:30:17","2025/8/8 11:31:51",NULL,NULL,"<p style='color:green;'>正解！</p>",NULL,NULL,NULL,NULL
NULL,"classification_trial","html-button-response","8","35455","0.0-2.0-3.0-0.0","6169624","outline","2025/8/8 11:30:17","2025/8/8 11:31:51",NULL,"4021","<p>頭の中の話を形にしている。</p>","1","出力","頭の中の話を形にしている。","1"
NULL,"feedback_trial","html-keyboard-response","9","35957","0.0-2.0-3.0-1.0","6169624","outline","2025/8/8 11:30:17","2025/8/8 11:31:51",NULL,NULL,"<p style='color:green;'>正解！</p>",NULL,NULL,NULL,NULL
NULL,"classification_trial","html-button-response","10","36935","0.0-2.0-4.0-0.0","6169624","outline","2025/8/8 11:30:17","2025/8/8 11:31:51",NULL,"977","<p>誤字を修正した。</p>","2","修正","誤字を修正した。","1"
NULL,"feedback_trial","html-keyboard-response","11","37438","0.0-2.0-4.0-1.0","6169624","outline","2025/8/8 11:30:17","2025/8/8 11:31:51",NULL,NULL,"<p style='color:green;'>正解！</p>",NULL,NULL,NULL,NULL
NULL,"classification_trial","html-button-response","12","42311","0.0-2.0-5.0-0.0","6169624","outline","2025/8/8 11:30:17","2025/8/8 11:31:51",NULL,"4873","<p>全体の流れを思い描いている。</p>","1","プランニング","全体の流れを思い描いている。",
NULL,"feedback_trial","html-keyboard-response","13","42812","0.0-2.0-5.0-1.0","6169624","outline","2025/8/8 11:30:17","2025/8/8 11:31:51",NULL,NULL,"<p style='color:red;'>不正解！もう一度回答してください。</p>",NULL,NULL,NULL,NULL
NULL,"classification_trial","html-button-response","14","43483","0.0-2.0-5.1-0.1","6169624","outline","2025/8/8 11:30:17","2025/8/8 11:31:51",NULL,"670","<p>全体の流れを思い描いている。</p>","0","プランニング","全体の流れを思い描いている。","1"
NULL,"feedback_trial","html-keyboard-response","15","43984","0.0-2.0-5.1-1.1","6169624","outline","2025/8/8 11:30:17","2025/8/8 11:31:51",NULL,NULL,"<p style='color:green;'>正解！</p>",NULL,NULL,NULL,NULL
NULL,"classification_trial","html-button-response","16","46743","0.0-2.0-6.0-0.0","6169624","outline","2025/8/8 11:30:17","2025/8/8 11:31:51",NULL,"2758","<p>思いついた言葉をすぐに書いている。</p>","1","出力","思いついた言葉をすぐに書いている。","1"
NULL,"feedback_trial","html-keyboard-response","17","47245","0.0-2.0-6.0-1.0","6169624","outline","2025/8/8 11:30:17","2025/8/8 11:31:51",NULL,NULL,"<p style='color:green;'>正解！</p>",NULL,NULL,NULL,NULL
NULL,"classification_trial","html-button-response","18","48747","0.0-2.0-7.0-0.0","6169624","outline","2025/8/8 11:30:17","2025/8/8 11:31:51",NULL,"1501","<p>読みにくい部分を調整している。</p>","2","修正","読みにくい部分を調整している。","1"
NULL,"feedback_trial","html-keyboard-response","19","49248","0.0-2.0-7.0-1.0","6169624","outline","2025/8/8 11:30:17","2025/8/8 11:31:51",NULL,NULL,"<p style='color:green;'>正解！</p>",NULL,NULL,NULL,NULL
NULL,"classification_trial","html-button-response","20","50359","0.0-2.0-8.0-0.0","6169624","outline","2025/8/8 11:30:17","2025/8/8 11:31:51",NULL,"1110","<p>タイマーの残り時間を確認した。</p>","3","その他","タイマーの残り時間を確認した。","1"
NULL,"feedback_trial","html-keyboard-response","21","50861","0.0-2.0-8.0-1.0","6169624","outline","2025/8/8 11:30:17","2025/8/8 11:31:51",NULL,NULL,"<p style='color:green;'>正解！</p>",NULL,NULL,NULL,NULL
NULL,"classification_trial","html-button-response","22","52623","0.0-2.0-9.0-0.0","6169624","outline","2025/8/8 11:30:17","2025/8/8 11:31:51",NULL,"1761","<p>キーボードで文章を入力している。</p>","1","出力","キーボードで文章を入力している。","1"
NULL,"feedback_trial","html-keyboard-response","23","53124","0.0-2.0-9.0-1.0","6169624","outline","2025/8/8 11:30:17","2025/8/8 11:31:51",NULL,NULL,"<p style='color:green;'>正解！</p>",NULL,NULL,NULL,NULL
NULL,"classification_trial","html-button-response","24","55347","0.0-2.0-10.0-0.0","6169624","outline","2025/8/8 11:30:17","2025/8/8 11:31:51",NULL,"2222","<p>話の構成を考えている。</p>","0","プランニング","話の構成を考えている。","1"
NULL,"feedback_trial","html-keyboard-response","25","55848","0.0-2.0-10.0-1.0","6169624","outline","2025/8/8 11:30:17","2025/8/8 11:31:51",NULL,NULL,"<p style='color:green;'>正解！</p>",NULL,NULL,NULL,NULL
NULL,"classification_trial","html-button-response","26","59007","0.0-2.0-11.0-0.0","6169624","outline","2025/8/8 11:30:17","2025/8/8 11:31:51",NULL,"3158","<p>自分の書いた文字を眺めていたが、何も考えていなかった。</p>","3","その他","自分の書いた文字を眺めていたが、何も考えていなかった。","1"
NULL,"feedback_trial","html-keyboard-response","27","59510","0.0-2.0-11.0-1.0","6169624","outline","2025/8/8 11:30:17","2025/8/8 11:31:51",NULL,NULL,"<p style='color:green;'>正解！</p>",NULL,NULL,NULL,NULL
NULL,"classification_trial","html-button-response","28","61647","0.0-2.0-12.0-0.0","6169624","outline","2025/8/8 11:30:17","2025/8/8 11:31:51",NULL,"2137","<p>時系列を整理している。</p>","3","プランニング","時系列を整理している。",
NULL,"feedback_trial","html-keyboard-response","29","62148","0.0-2.0-12.0-1.0","6169624","outline","2025/8/8 11:30:17","2025/8/8 11:31:51",NULL,NULL,"<p style='color:red;'>不正解！もう一度回答してください。</p>",NULL,NULL,NULL,NULL
NULL,"classification_trial","html-button-response","30","62639","0.0-2.0-12.1-0.1","6169624","outline","2025/8/8 11:30:17","2025/8/8 11:31:51",NULL,"490","<p>時系列を整理している。</p>","0","プランニング","時系列を整理している。","1"
NULL,"feedback_trial","html-keyboard-response","31","63148","0.0-2.0-12.1-1.1","6169624","outline","2025/8/8 11:30:17","2025/8/8 11:31:51",NULL,NULL,"<p style='color:green;'>正解！</p>",NULL,NULL,NULL,NULL
NULL,"classification_trial","html-button-response","32","64587","0.0-2.0-13.0-0.0","6169624","outline","2025/8/8 11:30:17","2025/8/8 11:31:51",NULL,"1438","<p>「ある日」という言葉を打ち込んでいる。</p>","1","出力","「ある日」という言葉を打ち込んでいる。","1"
NULL,"feedback_trial","html-keyboard-response","33","65088","0.0-2.0-13.0-1.0","6169624","outline","2025/8/8 11:30:17","2025/8/8 11:31:51",NULL,NULL,"<p style='color:green;'>正解！</p>",NULL,NULL,NULL,NULL
NULL,"classification_trial","html-button-response","34","66259","0.0-2.0-14.0-0.0","6169624","outline","2025/8/8 11:30:17","2025/8/8 11:31:51",NULL,"1170","<p>キャラクターの名前を入力している。</p>","1","出力","キャラクターの名前を入力している。","1"
NULL,"feedback_trial","html-keyboard-response","35","66761","0.0-2.0-14.0-1.0","6169624","outline","2025/8/8 11:30:17","2025/8/8 11:31:51",NULL,NULL,"<p style='color:green;'>正解！</p>",NULL,NULL,NULL,NULL
NULL,"classification_trial","html-button-response","36","69127","0.0-2.0-15.0-0.0","6169624","outline","2025/8/8 11:30:17","2025/8/8 11:31:51",NULL,"2365","<p>書くことをやめて指を回していた。</p>","3","その他","書くことをやめて指を回していた。","1"
NULL,"feedback_trial","html-keyboard-response","37","69630","0.0-2.0-15.0-1.0","6169624","outline","2025/8/8 11:30:17","2025/8/8 11:31:51",NULL,NULL,"<p style='color:green;'>正解！</p>",NULL,NULL,NULL,NULL
NULL,"classification_trial","html-button-response","38","71123","0.0-2.0-16.0-0.0","6169624","outline","2025/8/8 11:30:17","2025/8/8 11:31:51",NULL,"1493","<p>物語の終わり方を考えている。</p>","1","プランニング","物語の終わり方を考えている。",
NULL,"feedback_trial","html-keyboard-response","39","71624","0.0-2.0-16.0-1.0","6169624","outline","2025/8/8 11:30:17","2025/8/8 11:31:51",NULL,NULL,"<p style='color:red;'>不正解！もう一度回答してください。</p>",NULL,NULL,NULL,NULL
NULL,"classification_trial","html-button-response","40","72263","0.0-2.0-16.1-0.1","6169624","outline","2025/8/8 11:30:17","2025/8/8 11:31:51",NULL,"638","<p>物語の終わり方を考えている。</p>","0","プランニング","物語の終わり方を考えている。","1"
NULL,"feedback_trial","html-keyboard-response","41","72764","0.0-2.0-16.1-1.1","6169624","outline","2025/8/8 11:30:17","2025/8/8 11:31:51",NULL,NULL,"<p style='color:green;'>正解！</p>",NULL,NULL,NULL,NULL
NULL,"classification_trial","html-button-response","42","74279","0.0-2.0-17.0-0.0","6169624","outline","2025/8/8 11:30:17","2025/8/8 11:31:51",NULL,"1514","<p>表現をより自然に直している。</p>","2","修正","表現をより自然に直している。","1"
NULL,"feedback_trial","html-keyboard-response","43","74780","0.0-2.0-17.0-1.0","6169624","outline","2025/8/8 11:30:17","2025/8/8 11:31:51",NULL,NULL,"<p style='color:green;'>正解！</p>",NULL,NULL,NULL,NULL
NULL,"classification_trial","html-button-response","44","76347","0.0-2.0-18.0-0.0","6169624","outline","2025/8/8 11:30:17","2025/8/8 11:31:51",NULL,"1566","<p>思いついた文をそのまま書いている。</p>","1","出力","思いついた文をそのまま書いている。","1"
NULL,"feedback_trial","html-keyboard-response","45","76848","0.0-2.0-18.0-1.0","6169624","outline","2025/8/8 11:30:17","2025/8/8 11:31:51",NULL,NULL,"<p style='color:green;'>正解！</p>",NULL,NULL,NULL,NULL
NULL,"classification_trial","html-button-response","46","78007","0.0-2.0-19.0-0.0","6169624","outline","2025/8/8 11:30:17","2025/8/8 11:31:51",NULL,"1157","<p>何も思いつかずに机の上を眺めていた。</p>","3","その他","何も思いつかずに机の上を眺めていた。","1"
NULL,"feedback_trial","html-keyboard-response","47","78507","0.0-2.0-19.0-1.0","6169624","outline","2025/8/8 11:30:17","2025/8/8 11:31:51",NULL,NULL,"<p style='color:green;'>正解！</p>",NULL,NULL,NULL,NULL
NULL,"classification_trial","html-button-response","48","79311","0.0-2.0-20.0-0.0","6169624","outline","2025/8/8 11:30:17","2025/8/8 11:31:51",NULL,"802","<p>目を閉じてぼーっとしていた。</p>","3","その他","目を閉じてぼーっとしていた。","1"
NULL,"feedback_trial","html-keyboard-response","49","79812","0.0-2.0-20.0-1.0","6169624","outline","2025/8/8 11:30:17","2025/8/8 11:31:51",NULL,NULL,"<p style='color:green;'>正解！</p>",NULL,NULL,NULL,NULL
NULL,"classification_trial","html-button-response","50","81199","0.0-2.0-21.0-0.0","6169624","outline","2025/8/8 11:30:17","2025/8/8 11:31:51",NULL,"1386","<p>誤字脱字を確認するために、本文を読み直している。</p>","2","修正","誤字脱字を確認するために、本文を読み直している。","1"
NULL,"feedback_trial","html-keyboard-response","51","81700","0.0-2.0-21.0-1.0","6169624","outline","2025/8/8 11:30:17","2025/8/8 11:31:51",NULL,NULL,"<p style='color:green;'>正解！</p>",NULL,NULL,NULL,NULL
NULL,"classification_trial","html-button-response","52","82503","0.0-2.0-22.0-0.0","6169624","outline","2025/8/8 11:30:17","2025/8/8 11:31:51",NULL,"802","<p>内容を読み返して見直している。</p>","2","修正","内容を読み返して見直している。","1"
NULL,"feedback_trial","html-keyboard-response","53","83004","0.0-2.0-22.0-1.0","6169624","outline","2025/8/8 11:30:17","2025/8/8 11:31:51",NULL,NULL,"<p style='color:green;'>正解！</p>",NULL,NULL,NULL,NULL
NULL,"classification_trial","html-button-response","54","83927","0.0-2.0-23.0-0.0","6169624","outline","2025/8/8 11:30:17","2025/8/8 11:31:51",NULL,"922","<p>ストレッチをして体をほぐした。</p>","3","その他","ストレッチをして体をほぐした。","1"
NULL,"feedback_trial","html-keyboard-response","55","84428","0.0-2.0-23.0-1.0","6169624","outline","2025/8/8 11:30:17","2025/8/8 11:31:51",NULL,NULL,"<p style='color:green;'>正解！</p>",NULL,NULL,NULL,NULL
NULL,"classification_trial","html-button-response","56","85271","0.0-2.0-24.0-0.0","6169624","outline","2025/8/8 11:30:17","2025/8/8 11:31:51",NULL,"842","<p>文章をどんどんタイピングしている。</p>","1","出力","文章をどんどんタイピングしている。","1"
NULL,"feedback_trial","html-keyboard-response","57","85772","0.0-2.0-24.0-1.0","6169624","outline","2025/8/8 11:30:17","2025/8/8 11:31:51",NULL,NULL,"<p style='color:green;'>正解！</p>",NULL,NULL,NULL,NULL
NULL,"classification_trial","html-button-response","58","86863","0.0-2.0-25.0-0.0","6169624","outline","2025/8/8 11:30:17","2025/8/8 11:31:51",NULL,"1090","<p>話のつながりがおかしいので直した。</p>","2","修正","話のつながりがおかしいので直した。","1"
NULL,"feedback_trial","html-keyboard-response","59","87363","0.0-2.0-25.0-1.0","6169624","outline","2025/8/8 11:30:17","2025/8/8 11:31:51",NULL,NULL,"<p style='color:green;'>正解！</p>",NULL,NULL,NULL,NULL
NULL,"classification_trial","html-button-response","60","88187","0.0-2.0-26.0-0.0","6169624","outline","2025/8/8 11:30:17","2025/8/8 11:31:51",NULL,"822","<p>文章が変だったので書き直した。</p>","2","修正","文章が変だったので書き直した。","1"
NULL,"feedback_trial","html-keyboard-response","61","88697","0.0-2.0-26.0-1.0","6169624","outline","2025/8/8 11:30:17","2025/8/8 11:31:51",NULL,NULL,"<p style='color:green;'>正解！</p>",NULL,NULL,NULL,NULL
NULL,"classification_trial","html-button-response","62","90143","0.0-2.0-27.0-0.0","6169624","outline","2025/8/8 11:30:17","2025/8/8 11:31:51",NULL,"1445","<p>この話の舞台をどうするか決めている。</p>","0","プランニング","この話の舞台をどうするか決めている。","1"
NULL,"feedback_trial","html-keyboard-response","63","90644","0.0-2.0-27.0-1.0","6169624","outline","2025/8/8 11:30:17","2025/8/8 11:31:51",NULL,NULL,"<p style='color:green;'>正解！</p>",NULL,NULL,NULL,NULL
NULL,"task_description","html-keyboard-response","64","93618","0.0-3.0","6169624","outline","2025/8/8 11:30:17","2025/8/8 11:31:51",NULL,"2973","
      <p style=""text-align: left"">本課題では、<strong>あなたが考えたオリジナルの面白い物語を書いていただきます。</strong></p>
      <p style=""text-align: left"">その時に、いま覚えてもらった4種類の思考内容についてもお尋ねします。</p>
      <p><br><br></p>
      <p style=""text-align: left"">次に、本課題の前に行ってもらう課題の説明に移ります。準備ができたらスペースキーを押してください。</p>
    "," ",NULL,NULL,NULL
"1","FullScreen","fullscreen","0","11955","0.0-0.0","2349425","structured","2025/8/8 11:29:23","2025/8/8 11:31:58",NULL,NULL,NULL,NULL,NULL,NULL,NULL
NULL,"category_inst_tl","instructions","1","81726","0.0-1.0","2349425","structured","2025/8/8 11:29:23","2025/8/8 11:31:58","Array","69770",NULL,NULL,NULL,NULL,NULL
NULL,"classification_trial","html-button-response","2","84208","0.0-2.0-0.0-0.0","2349425","structured","2025/8/8 11:29:23","2025/8/8 11:31:58",NULL,"2481","<p>表現をより自然に直している。</p>","2","修正","表現をより自然に直している。","1"
NULL,"feedback_trial","html-keyboard-response","3","84710","0.0-2.0-0.0-1.0","2349425","structured","2025/8/8 11:29:23","2025/8/8 11:31:58",NULL,NULL,"<p style='color:green;'>正解！</p>",NULL,NULL,NULL,NULL
NULL,"classification_trial","html-button-response","4","86887","0.0-2.0-1.0-0.0","2349425","structured","2025/8/8 11:29:23","2025/8/8 11:31:58",NULL,"2176","<p>キャラクターの名前を入力している。</p>","1","出力","キャラクターの名前を入力している。","1"
NULL,"feedback_trial","html-keyboard-response","5","87389","0.0-2.0-1.0-1.0","2349425","structured","2025/8/8 11:29:23","2025/8/8 11:31:58",NULL,NULL,"<p style='color:green;'>正解！</p>",NULL,NULL,NULL,NULL
NULL,"classification_trial","html-button-response","6","89462","0.0-2.0-2.0-0.0","2349425","structured","2025/8/8 11:29:23","2025/8/8 11:31:58",NULL,"2073","<p>自分の書いた文字を眺めていたが、何も考えていなかった。</p>","3","その他","自分の書いた文字を眺めていたが、何も考えていなかった。","1"
NULL,"feedback_trial","html-keyboard-response","7","89964","0.0-2.0-2.0-1.0","2349425","structured","2025/8/8 11:29:23","2025/8/8 11:31:58",NULL,NULL,"<p style='color:green;'>正解！</p>",NULL,NULL,NULL,NULL
NULL,"classification_trial","html-button-response","8","91382","0.0-2.0-3.0-0.0","2349425","structured","2025/8/8 11:29:23","2025/8/8 11:31:58",NULL,"1417","<p>ストレッチをして体をほぐした。</p>","3","その他","ストレッチをして体をほぐした。","1"
