"ID","condition","order","time","probe_interval","response","response_time_for_beep","trial_text"
"4270487","structured","0","34886","30000","planning","1438",
"4270487","structured","1","74023","36000","output","1280","私は都内の企業に勤めている市がないサラリーマンだ。毎日残業が多くやりがいはあるもののひへいｓ"
"4270487","structured","2","110342","33000","output","1335","私は都内の企業に勤めている市がないサラリーマンだ。毎日残業が多くやりがいはあるものの"
"5227688","structured","0","34272","29000","planning","2732","山野昇る"
"5127776","structured","0","66224","36000","planning","25097",
"276409","structured","0","29551","23000","output","1703","ある日めのｍ"
"4270487","structured","3","154879","41000","output","1173","私は都内の企業に勤めている市がないサラリーマンだ。毎日残業が多くやりがいはあるものの疲れがたまる一方の毎日を過ごしている。
"
"5227688","structured","1","79771","41000","output","1876","山野ノボル60歳は定年退職を機に、憧れだった富士山登山に挑戦してみることにした"
"4270487","structured","4","189806","32000","output","1166","私は都内の企業に勤めている市がないサラリーマンだ。毎日残業が多くやりがいはあるものの疲れがたまる一方の毎日を過ごしている。
先日大きなプロジェクトを終わらせたこともあり"
"5127776","structured","1","118217","45000","planning","4566",
"276409","structured","1","70992","30000","planning","6783","ある日目の前に幽霊が現れて"
"5227688","structured","2","112231","29000","planning","2132","山野ノボル60歳は定年退職を機に、憧れだった富士山登山に挑戦してみることにした。若い頃からひ弱で体力面にはじしｎ"
"276409","structured","2","97343","21000","output","2367","ある日目の前に幽霊が現れて先祖から"
"5127776","structured","2","151158","27000","planning","4113",
"4270487","structured","5","223617","31000","output","1229","私は都内の企業に勤めている市がないサラリーマンだ。毎日残業が多くやりがいはあるものの疲れがたまる一方の毎日を過ごしている。
先日大きなプロジェクトを終わらせたこともあり長期の休暇を取ってふと一人旅に出かけることにした。
時間に余裕があるので車を運転しての"
"5227688","structured","3","144436","28000","planning","1784","山野ノボル60歳は定年退職を機に、憧れだった富士山登山に挑戦してみることにした。若い頃からひ弱で体力面には自信がなかったが、テレビや本の影響で富士山登山へのおもいはつよま"
"276409","structured","3","131815","31000","output","1774","ある日目の前に先祖の幽霊が現れて自分の行いが"
"5127776","structured","3","190228","33000","revision","1934",
"4408530","structured","0","53418","19000","planning","1833",
"1201560","structured","0","30779","25000","planning","1765",
"4858226","structured","0","41110","35000","planning","1050","ある日、突然ある国からでんっ"
"4270487","structured","6","267263","41000","output","1041","私は都内の企業に勤めている市がないサラリーマンだ。毎日残業が多くやりがいはあるものの疲れがたまる一方の毎日を過ごしている。
先日大きなプロジェクトを終わらせたこともあり長期の休暇を取ってふと一人旅に出かけることにした。
時間に余裕があるので車を運転しての移動より普段はあまり使わないローカル線でののんびりとした旅をすることにした。"
"5231896","structured","0","54655","45000","planning","2689","元気をと"
"276409","structured","4","162103","27000","planning","1944","ある日目の前に先祖の幽霊が現れて自分の行いがあまりにも人の道から外れているので呪いをかけて"
"4858226","structured","1","61237","17000","planning","1236","ある日、突然ある国から伝染病が起き始める。
過去にない"
"5227688","structured","4","190916","42000","output","2232","山野ノボル60歳は定年退職を機に、憧れだった富士山登山に挑戦してみることにした。若い頃からひ弱で体力面には自信がなかったが、テレビや本の影響で富士山登山への思いは強まるばかり。
不安と期待を抱きつつ、山登りへの準備をすすめること"
"4408530","structured","1","80658","16000","planning","3496","5歳で柔道をはじめ"
"5231896","structured","1","80565","20000","output","2802","今までずっと生まれからｔ"
"4270487","structured","7","301762","32000","output","1133","私は都内の企業に勤めている市がないサラリーマンだ。毎日残業が多くやりがいはあるものの疲れがたまる一方の毎日を過ごしている。
先日大きなプロジェクトを終わらせたこともあり長期の休暇を取ってふと一人旅に出かけることにした。
時間に余裕があるので車を運転しての移動より普段はあまり使わないローカル線でののんびりとした旅をすることにした。

出発してしばらくは順調に旅程を進めることが出来たが、とある地方のローカル線でたまたまうんｗ"
"5127776","structured","4","230399","36000","revision","2277","港町に暮らす青年カイは、祖父から受け継いだ古い羅針盤を持っていた。針はある日、みんなから恐れられる「黒嵐の海」をまっすぐ示す。

　カイは炎を操るエリン、海中を泳ぐトウマ、風を読むミラと出航。嵐の中、氷塊や巨大な渦が行く手を阻むが、仲間の力を合わせ突破した。

　嵐の先には黄金の島と財宝が眠っており、カイたちは無事持ち帰って港町を救う。だが羅針盤は再び別の方角を指し、次の冒険を告げていた。

"
"4858226","structured","2","86907","23000","planning","1130","ある日、突然ある国から伝染病が起き始める。
過去にない症状なので初めのころはパニック"
"4408530","structured","2","102610","15000","output","3607","5歳で柔道をはじめた健は、オリンピックを"
"276409","structured","5","190024","25000","output","1350","ある日目の前に先祖の幽霊が現れて自分の行いがあまりにも人の道から外れているので呪いをかけて3日以内にかいしんし"
"5231896","structured","2","102195","17000","output","2331","今までずっと生まれからずっとともに携わってい来たこの森を"
"4270487","structured","8","330446","26000","output","1118","私は都内の企業に勤めている市がないサラリーマンだ。毎日残業が多くやりがいはあるものの疲れがたまる一方の毎日を過ごしている。
先日大きなプロジェクトを終わらせたこともあり長期の休暇を取ってふと一人旅に出かけることにした。
時間に余裕があるので車を運転しての移動より普段はあまり使わないローカル線でののんびりとした旅をすることにした。

出発してしばらくは順調に旅程を進めることが出来たが、とある地方のローカル線でたまたま運悪く運休している区間がありその先に進むことがｍ"
"5227688","structured","5","233778","39000","output","1814","山野ノボル60歳は定年退職を機に、憧れだった富士山登山に挑戦してみることにした。若い頃からひ弱で体力面には自信がなかったが、テレビや本の影響で富士山登山への思いは強まるばかり。
不安と期待を抱きつつ、山登りへの準備をすすめることにした。まずは体力作りのために1時間のウォーキングをすることにしたノボル。しかし"
"5127776","structured","5","275688","40000","output","1923","港町に暮らす青年カイは、祖父から受け継いだ古い羅針盤を持っていた。針はある日、みんなから恐れられる「黒嵐の海」をまっすぐ示すしていた。

　カイは炎を操るエリン、海中を泳ぐトウマ、風を読むミラと出航した。嵐の中、氷塊や巨大な渦が行く手を阻むが、仲間の力を合わせ突破した。

　嵐の先には黄金の島と財宝が眠っており、カイたちは無事持ち帰って港町を救う。だが羅針盤は再び別の方角を指し、次の冒険を告げていた。

"
"4858226","structured","3","124941","35000","output","870","ある日、突然ある国から伝染病が起き始める。
過去にない症状なので初めのころはパニック状態が続いた。
いろんな国の学者や医者がこのびょうげんきん"
"4441706","structured","0","34271","27000","output","1819","田中太郎は、"
"276409","structured","6","228376","35000","output","1680","ある日目の前に先祖の幽霊が現れて自分の行いがあまりにも人の道から外れているので呪いをかけて3日以内に改心しなければあの世に連れて行ってやると脅された。"
"4408530","structured","3","142319","33000","output","4489","5歳で柔道をはじめた健は、オリンピックを目指して毎日柔道に励んでいます。１"
"5231896","structured","3","150476","43000","output","2545","今までずっと生まれからずっとともに携わってい来たこの森を少しでも元気にするために、どうしても動きたくなった少年が、何かやり方がないのか、ひｓ"
"4270487","structured","9","371173","38000","output","1470","私は都内の企業に勤めている市がないサラリーマンだ。毎日残業が多くやりがいはあるものの疲れがたまる一方の毎日を過ごしている。
先日大きなプロジェクトを終わらせたこともあり長期の休暇を取ってふと一人旅に出かけることにした。
時間に余裕があるので車を運転しての移動より普段はあまり使わないローカル線でののんびりとした旅をすることにした。

出発してしばらくは順調に旅程を進めることが出来たが、とある地方のローカル線でたまたま運悪く運休している区間がありその先に進むことが出来なくなった。
タクシーを拾って運休区間をｓ"
"6157211","structured","0","32705","27000","output","1221","1．ある日、人間がペットショップをのぞいて"
"5227688","structured","6","272677","35000","planning","2000","山野ノボル60歳は定年退職を機に、憧れだった富士山登山に挑戦してみることにした。若い頃からひ弱で体力面には自信がなかったが、テレビや本の影響で富士山登山への思いは強まるばかり。
不安と期待を抱きつつ、山登りへの準備をすすめることにした。まずは体力作りのために1時間のウォーキングをすることにしたノボル。しかし思いの外、体力を消耗し30分歩くだけでバテテしまった。このままではふじさ"
"4441706","structured","1","57143","18000","output","2382","田中太郎は、子供のころから野球を見るこ"
"4818552","structured","0","46343","37000","other","1351","少女は少し性格をｓ"
"276409","structured","7","257463","26000","planning","1704","ある日目の前に先祖の幽霊が現れて自分の行いがあまりにも人の道から外れているので呪いをかけて3日以内に改心しなければあの世に連れて行ってやると脅された。解決する方法は２ｒ"
"5127776","structured","6","315580","34000","output","2612","港町に暮らす青年カイは、祖父から受け継いだ古い羅針盤を持っていた。針はある日、みんなから恐れられる「黒嵐の海」をまっすぐ示すしていた。

　カイは炎を操るエリン、海中を泳ぐトウマ、風を読むミラと出航した。嵐の中、氷塊や巨大な渦が行く手を阻むが、仲間の力を合わせ突破した。

　嵐の先には黄金の島と財宝が眠っており、カイたちは無事に持ち帰って港町を救う。だが羅針盤は再び別の方角を指し、次の冒険を告げていた。

"
"4858226","structured","4","162665","35000","planning","1120","ある日、突然ある国から伝染病が起き始める。
過去にない症状なので初めのころはパニック状態が続いた。
いろんな国の学者や医者がこの病原菌について調べ始めたが、なかなかいい答えが見つからなかった。

"
"4270487","structured","10","391615","18000","output","1366","私は都内の企業に勤めている市がないサラリーマンだ。毎日残業が多くやりがいはあるものの疲れがたまる一方の毎日を過ごしている。
先日大きなプロジェクトを終わらせたこともあり長期の休暇を取ってふと一人旅に出かけることにした。
時間に余裕があるので車を運転しての移動より普段はあまり使わないローカル線でののんびりとした旅をすることにした。

出発してしばらくは順調に旅程を進めることが出来たが、とある地方のローカル線でたまたま運悪く運休している区間がありその先に進むことが出来なくなった。
タクシーを拾って運休区間を進もうかと思ったが、結構な距離がありとち"
"4408530","structured","4","180426","33000","output","3747","5歳で柔道をはじめた健は、オリンピックを目指して毎日柔道に励んでいます。15歳になる頃、健は親におねが"
"5227688","structured","7","292569","16000","planning","2233","山野ノボル60歳は定年退職を機に、憧れだった富士山登山に挑戦してみることにした。若い頃からひ弱で体力面には自信がなかったが、テレビや本の影響で富士山登山への思いは強まるばかり。
不安と期待を抱きつつ、山登りへの準備をすすめることにした。まずは体力作りのために1時間のウォーキングをすることにしたノボル。しかし思いの外、体力を消耗し30分歩くだけでバテテしまった。このままでは富士山どころではない。まずは"
"163607","structured","0","58102","44000","planning","1764","朝、毎日欠かさない庭に植えた植物のみずやりｗ"
"4818552","structured","1","70254","16000","planning","1901","少女は少し変わった性格をしていた。ぎむきょういｋ"
"5231896","structured","4","186154","32000","output","1802","今までずっと生まれからずっとともに携わってい来たこの森を少しでも元気にするために、どうしても動きたくなった少年が、何かやり方がないのか、必死に考えていた。途方に暮れていたが、少女に出会った。その少女もおなじかんがえ"
"4441706","structured","2","89559","27000","output","1977","田中太郎は、子供のころから野球を見ることが好きであった。彼はもともとテレビで野球"
"6157211","structured","1","74673","38000","output","1189","1．ある日、人間がペットショップを覗いていると、ふと一つの水槽が目に入った。人間は一目見て魚に恋に落ちた。てんいん"
"5127776","structured","7","341225","21000","planning","1552","港町に暮らす青年カイは、祖父から受け継いだ古い羅針盤を持っていた。針はある日、みんなから恐れられる「黒嵐の海」をまっすぐ示すしていた。

　カイは炎を操るエリン、海中を泳ぐトウマ、風を読むミラと出航した。嵐の中、氷塊や巨大な渦が行く手を阻むが、仲間の力を合わせ突破した。

　嵐の先には黄金の島と財宝が眠っており、カイたちは無事に全ての財宝を持ち帰って財政難だった港町を救う。だが羅針盤は再び別の方角を指し、次の冒険を告げていた。

"
"4408530","structured","5","205692","19000","output","2849","5歳で柔道をはじめた健は、オリンピックを目指して毎日柔道に励んでいます。15歳になる頃、健は親におねがいして柔道の"
"5227688","structured","8","318091","21000","planning","3204","山野ノボル60歳は定年退職を機に、憧れだった富士山登山に挑戦してみることにした。若い頃からひ弱で体力面には自信がなかったが、テレビや本の影響で富士山登山への思いは強まるばかり。
不安と期待を抱きつつ、山登りへの準備をすすめることにした。まずは体力作りのために1時間のウォーキングをすることにしたノボル。しかし思いの外、体力を消耗し30分歩くだけでバテテしまった。このままでは富士山どころではない。まずは体力作り、食事面などを見直すことにした"
"276409","structured","8","294865","31000","output","4240","ある日目の前に先祖の幽霊が現れて自分の行いがあまりにも人の道から外れているので呪いをかけて3日以内に改心しなければあの世に連れて行ってやると脅された。解決する方法は2人の他人心から"
"4270487","structured","11","423142","29000","output","1701","私は都内の企業に勤めている市がないサラリーマンだ。毎日残業が多くやりがいはあるものの疲れがたまる一方の毎日を過ごしている。
先日大きなプロジェクトを終わらせたこともあり長期の休暇を取ってふと一人旅に出かけることにした。
時間に余裕があるので車を運転しての移動より普段はあまり使わないローカル線でののんびりとした旅をすることにした。

出発してしばらくは順調に旅程を進めることが出来たが、とある地方のローカル線でたまたま運悪く運休している区間がありその先に進むことが出来なくなった。
タクシーを拾って運休区間を進もうかと思ったが、結構な距離があり土地勘もないので費用面で難しいと感じバスなどの公共交通機関やふりあえ"
"201371","structured","0","219127","29000","planning","2086",
"4818552","structured","2","100774","27000","planning","1635","少女は少し変わった性格をしていた。学校"
"6492409","structured","0","24496","19000","planning","1891","ある国に"
"4858226","structured","5","210102","44000","output","1241","ある日、突然ある国から伝染病が起き始める。
過去にない症状なので初めのころはパニック状態が続いた。
いろんな国の学者や医者がこの病原菌について調べ始めたが、なかなかいい答えが見つからなかった。
この病原菌のもっとも近くにいたのはその学者たちであって、やはり"
"5127776","structured","8","364480","19000","output","2375","港町に暮らす青年カイは、祖父から受け継いだ古い羅針盤を持っていた。針はある日、みんなから恐れられる「黒嵐の海」をまっすぐ示すしていた。

　カイは炎を操るエリン、海中を泳ぐトウマ、風を読むミラと出航した。嵐の中、氷塊や巨大な渦が行く手を阻むが、仲間の力を合わせ突破した。

　嵐の先には黄金の島と財宝が眠っており、カイたちは無事に全ての財宝を持ち帰って財政難だった港町を救う。夜にはうただが羅針盤は再び別の方角を指し、次の冒険を告げていた。

"
"5231896","structured","5","221344","30000","output","1675","今までずっと生まれからずっとともに携わってい来たこの森を少しでも元気にするために、どうしても動きたくなった少年が、何かやり方がないのか、必死に考えていた。途方に暮れていたが、少女に出会った。その少女も同じ考えで、一緒に行動する事になった。その少女は助けられる"
"5227688","structured","9","343771","22000","output","2049","山野ノボル60歳は定年退職を機に、憧れだった富士山登山に挑戦してみることにした。若い頃からひ弱で体力面には自信がなかったが、テレビや本の影響で富士山登山への思いは強まるばかり。
不安と期待を抱きつつ、山登りへの準備をすすめることにした。まずは体力作りのために1時間のウォーキングをすることにしたノボル。しかし思いの外、体力を消耗し30分歩くだけでバテテしまった。このままでは富士山どころではない。まずは体力作り、食事面などを見直すことにした。少しずつ体力を強化していく"
"163607","structured","1","105779","43000","output","2116","朝、毎日欠かさない庭に植えた植物の水やりをしながら庭の隅に目をやると、う"
"4441706","structured","3","126759","32000","output","1928","田中太郎は、子供のころから野球を見ることが好きであった。彼はもともとテレビで野球を見ているだけであったが、次第に自分でも野球がしたいと思うようになった。そのことを太郎はｒ"
"6157211","structured","2","109458","31000","output","980","1．ある日、人間がペットショップを覗いていると、ふと一つの水槽が目に入った。人間は一目見て魚に恋に落ちた。店員に自分が恋をしたことを伝えると、「頭がおかしいのか？」と嘲笑されてしまう。それでも、"
"4408530","structured","6","240146","30000","output","3276","5歳で柔道をはじめた健は、オリンピックを目指して毎日柔道に励んでいます。15歳になる頃、健は親に柔道の名門高校に進学したいとお"
"6492409","structured","1","47986","18000","output","1552","ある国に妹のエマという"
"5138531","structured","0","28525","24000","output","1355","小さな町の片隅に魚屋があり、ろうｈ"
"4818552","structured","3","137166","32000","planning","1813","少女は少し変わった性格をしていた。そのため、学校ではいつも一人だった。
そんな折、一人の生徒を殴ってしまい、そのｓ"
"276409","structured","9","342591","41000","output","3391","ある日目の前に先祖の幽霊が現れて自分の行いがあまりにも人の道から外れているので呪いをかけて3日以内に改心しなければあの世に連れて行ってやると脅された。解決する方法は2人の他人から感謝されるようなことをしなければならないｔ"
"4270487","structured","12","469310","44000","output","1030","私は都内の企業に勤めている市がないサラリーマンだ。毎日残業が多くやりがいはあるものの疲れがたまる一方の毎日を過ごしている。
先日大きなプロジェクトを終わらせたこともあり長期の休暇を取ってふと一人旅に出かけることにした。
時間に余裕があるので車を運転しての移動より普段はあまり使わないローカル線でののんびりとした旅をすることにした。

出発してしばらくは順調に旅程を進めることが出来たが、とある地方のローカル線でたまたま運悪く運休している区間がありその先に進むことが出来なくなった。
タクシーを拾って運休区間を進もうかと思ったが、結構な距離があり土地勘もないので費用面で難しいと感じバスなどの公共交通機関や振り替えがないかと方々問い合わせていると徐々に日が暮れてきた。
仮にバス路線があったとしても田舎であればさいしゅうばｓ"
"5231896","structured","6","251855","27000","output","1479","今までずっと生まれからずっとともに携わってい来たこの森を少しでも元気にするために、どうしても動きたくなった少年が、何かやり方がないのか、必死に考えていた。途方に暮れていたが、少女に出会った。その少女も同じ考えで、一緒に行動する事になった。その少女は助けられるアイテムを知っているという事で、一緒に探しに行きました。すぐに見つける事が出来まし"
"4858226","structured","6","246863","34000","output","1030","ある日、突然ある国から伝染病が起き始める。
過去にない症状なので初めのころはパニック状態が続いた。
いろんな国の学者や医者がこの病原菌について調べ始めたが、なかなかいい答えが見つからなかった。
この病原菌のもっとも近くにいたのはその学者たちであって、感染するｎ"
"163607","structured","2","134020","23000","planning","1567","朝、毎日欠かさない庭に植えた植物の水やりをしながら庭の隅に目をやると、植えた覚えのない植物が芽を出している。
"
"6492409","structured","2","69710","18000","planning","982","ある国に妹のエマという王族の姉妹がいた。"
"5127776","structured","9","408165","40000","output","1795","港町に暮らす青年カイは、祖父から受け継いだ古い羅針盤を持っていた。針はある日、みんなから恐れられる「黒嵐の海」をまっすぐ示すしていた。

　カイは炎を操るエリン、海中を泳ぐトウマ、風を読むミラと出航した。嵐の中、氷塊や巨大な渦が行く手を阻むが、仲間の力を合わせ突破した。

　嵐の先には黄金の島と財宝が眠っており、カイたちは無事に全ての財宝を持ち帰って財政難だった港町を救う。夜には宴がひらかれて皆喜んだ。ふが羅針盤は再び別の方角を指し、次の冒険を告げていた。

"
"4408530","structured","7","269652","24000","output","4022","5歳で柔道をはじめた健は、オリンピックを目指して毎日柔道に励んでいます。15歳になる頃、健は親に柔道の名門高校に進学したいとお願いします。そして、そこで柔道を始めますが"
"201371","structured","1","270316","41000","output","2598","カラスは、右の翼がわずかに短いため、他の仲間たちのように速く、高く飛べませんでした。いつも群れの後ろを飛び、見慣れた山間の集落で物思いにふけるのが彼の日常でした。

ある年、厳しい冬が訪れる兆しが見え、群れは温暖な南の森への大移動を決意します。カラスも必死に皆についていこうとしますが、体力はみるみるうちに消耗していきました。そして、旅の途中で嵐に遭い、ついに群れからはぐれてしまいます。傷ついた翼はさらに痛みを増し、たどり着いた見知らぬ森で動けなくなってしまいました。

絶望に打ちひしがれるカラスでしたが、故郷の集落で培われた鋭い観察力が彼を救います。他の動物たちが見向きもしない、人間の残した食べ物のありかを彼は知っていました。また、速く飛べない代わりに、彼は地面を歩き、低い木々を伝い、傷ついた翼でも安全に移動できる独自のルートを見つけ出します。そうして、彼はついに南の森へとたどり着くのです。

遅れて到着したカラスは、群れの仲間たちを驚かせました。彼がもたらした、人間の知恵を活かした食料の知識は、皆の食卓を豊かにし、ハシビロはいつしか群れの中で、なくてはならない存在になっていきました。彼の弱点だった翼は、彼が自分だけの強みを見つけるための、かけがえのない道しるべとなったのでした。"
"5227688","structured","10","384319","37000","planning","2564","山野ノボル60歳は定年退職を機に、憧れだった富士山登山に挑戦してみることにした。若い頃からひ弱で体力面には自信がなかったが、テレビや本の影響で富士山登山への思いは強まるばかり。
不安と期待を抱きつつ、山登りへの準備をすすめることにした。まずは体力作りのために1時間のウォーキングをすることにしたノボル。しかし思いの外、体力を消耗し30分歩くだけでバテテしまった。このままでは富士山どころではない。まずは体力作り、食事面などを見直すことにした。少しずつ体力を強化していくノボル。1時間のウォーキングもへばらずこなせるようになり、食後のプロテインを"
"4270487","structured","13","493510","22000","output","1108","私は都内の企業に勤めている市がないサラリーマンだ。毎日残業が多くやりがいはあるものの疲れがたまる一方の毎日を過ごしている。
先日大きなプロジェクトを終わらせたこともあり長期の休暇を取ってふと一人旅に出かけることにした。
時間に余裕があるので車を運転しての移動より普段はあまり使わないローカル線でののんびりとした旅をすることにした。

出発してしばらくは順調に旅程を進めることが出来たが、とある地方のローカル線でたまたま運悪く運休している区間がありその先に進むことが出来なくなった。
タクシーを拾って運休区間を進もうかと思ったが、結構な距離があり土地勘もないので費用面で難しいと感じバスなどの公共交通機関や振り替えがないかと方々問い合わせていると徐々に日が暮れてきた。
仮にバス路線があったとしても田舎であれば最終便時間も早いだろうし土地勘のないと"
"5138531","structured","1","66526","33000","output","1262","小さな町の片隅に魚屋があり、老夫婦がその魚屋で勤めていた。その町"
"4441706","structured","4","177438","45000","other","1684","田中太郎は、子供のころから野球を見ることが好きであった。彼はもともとテレビで野球を見ているだけであったが、次第に自分でも野球がしたいと思うようになった。そのことを太郎は両親に相談したところ、地元で活動しているリトルリーグのチームを教えてもらった。"
"6157211","structured","3","157538","45000","output","885","1．ある日、人間がペットショップを覗いていると、ふと一つの水槽が目に入った。人間は一目見て魚に恋に落ちた。店員に自分が恋をしたことを伝えると、「頭がおかしいのか？」と嘲笑されてしまう。それでも、自分の恋心に正直になりたいと願った人間は、魚を購入しようとする。しかし、不審に思った店員に購入を"
"4858226","structured","7","274143","24000","output","963","ある日、突然ある国から伝染病が起き始める。
過去にない症状なので初めのころはパニック状態が続いた。
いろんな国の学者や医者がこの病原菌について調べ始めたが、なかなかいい答えが見つからなかった。
この病原菌のもっとも近くにいたのはその学者たちであったので、だんだんと感染者が"
"5231896","structured","7","280710","26000","planning","1419","今までずっと生まれからずっとともに携わってい来たこの森を少しでも元気にするために、どうしても動きたくなった少年が、何かやり方がないのか、必死に考えていた。途方に暮れていたが、少女に出会った。その少女も同じ考えで、一緒に行動する事になった。その少女は助けられるアイテムを知っているという事で、一緒に探しに行きました。すぐに見つける事が出来ましたが、み"
"5227688","structured","11","409568","21000","output","1833","山野ノボル60歳は定年退職を機に、憧れだった富士山登山に挑戦してみることにした。若い頃からひ弱で体力面には自信がなかったが、テレビや本の影響で富士山登山への思いは強まるばかり。
不安と期待を抱きつつ、山登りへの準備をすすめることにした。まずは体力作りのために1時間のウォーキングをすることにしたノボル。しかし思いの外、体力を消耗し30分歩くだけでバテテしまった。このままでは富士山どころではない。まずは体力作り、食事面などを見直すことにした。少しずつ体力を強化していくノボル。1時間のウォーキングもへばらずこなせるようになり、食後のプロテインを摂取したり余念がない。登山用グッズも揃え、"
"4409144","structured","0","44795","40000","planning","1841","勉強が苦手な小学三年生のまみはどうしたらテストで良い点が撮れる"
"4270487","structured","14","511701","16000","output","1080","私は都内の企業に勤めている市がないサラリーマンだ。毎日残業が多くやりがいはあるものの疲れがたまる一方の毎日を過ごしている。
先日大きなプロジェクトを終わらせたこともあり長期の休暇を取ってふと一人旅に出かけることにした。
時間に余裕があるので車を運転しての移動より普段はあまり使わないローカル線でののんびりとした旅をすることにした。

出発してしばらくは順調に旅程を進めることが出来たが、とある地方のローカル線でたまたま運悪く運休している区間がありその先に進むことが出来なくなった。
タクシーを拾って運休区間を進もうかと思ったが、結構な距離があり土地勘もないので費用面で難しいと感じバスなどの公共交通機関や振り替えがないかと方々問い合わせていると徐々に日が暮れてきた。
仮にバス路線があったとしても田舎であれば最終便時間も早いだろうし土地勘のない停留所で終点になったら目も当てられない。
"
"4818552","structured","4","183231","41000","output","1785","少女は少し変わった性格をしていた。そのため、学校ではいつも一人だった。
そんな折、一人の生徒を殴ってしまい、その生徒の親御さんから訴えられてしまった。
訴えられて裁判沙汰になり、転校を余儀なくされた。
転校先の学校ではｓ"
"6492409","structured","3","105910","31000","output","1718","ある国に妹のエマという王族の姉妹がいた。両親は死亡しており、姉が王女になる戴冠式を迎えようとしていｒ"
"201371","structured","2","305072","30000","revision","2498","カラスは、右の翼がわずかに短いため、他の仲間たちのように速く、高く飛べませんでした。いつも群れの後ろを飛び、見慣れた山間の集落で物思いにふけるのが彼の日常でした。

ある年、厳しい冬が訪れる兆しが見え、群れは温暖な南の森への大移動を決意します。カラスも必死に皆についていこうとしますが、体力はみるみるうちに消耗していきました。そして、旅の途中で嵐に遭い、ついに群れからはぐれてしまいます。傷ついた翼はさらに痛みを増し、たどり着いた見知らぬ森で動けなくなってしまいました。

絶望に打ちひしがれるカラスでしたが、故郷の集落で培われた鋭い観察力が彼を救います。他の動物たちが見向きもしない、人間の残した食べ物のありかを彼は知っていました。また、速く飛べない代わりに、彼は地面を歩き、低い木々を伝い、傷ついた翼でも安全に移動できる独自のルートを見つけ出します。そうして、彼はついに南の森へとたどり着くのです。

遅れて到着したカラスは、群れの仲間たちを驚かせました。彼がもたらした、人間の知恵を活かした食料の知識は、皆の食卓を豊かにし、カラスはいつしか群れの中で、なくてはならない存在になっていきました。彼の弱点だった翼は、彼が自分だけの強みを見つけるための、かけがえのない道しるべとなったのでした。"
"276409","structured","10","392320","45000","output","2687","ある日目の前に先祖の幽霊が現れて自分の行いがあまりにも人の道から外れているので呪いをかけて3日以内に改心しなければあの世に連れて行ってやると脅された。解決する方法は2人の他人から感謝されるようなことをしなければならないと言われた。仕方がないので困っている人を探して救ううしかないと辺りを見回したけど"
"163607","structured","3","181256","44000","output","1659","朝、毎日欠かさない庭に植えた植物の水やりをしながら庭の隅に目をやると、植えた覚えのない植物が芽を出している。
何処からか飛んできた種が芽吹いたのか小さな芽が可愛らしく、他の植物同様に"
"5138531","structured","2","91229","19000","planning","1204","小さな町の片隅に魚屋があり、老夫婦がその魚屋で勤めていた。その町には猫がたくさん住んでいて、その中に"
"4408530","structured","8","309788","34000","output","4746","5歳で柔道をはじめた健は、オリンピックを目指して毎日柔道に励んでいます。15歳になる頃、健は親に柔道の名門高校に進学したいとお願いします。そして、そこで柔道を始めますが、そこでは先輩からのいじめやシゴキが半端ではなく、か"
"5127776","structured","10","453084","41000","planning","1741","港町に暮らす青年カイは、祖父から受け継いだ古い羅針盤を持っていた。この羅針盤は、針はある日、みんなから恐れられる「黒嵐の海」をまっすぐ示すしていた。

　カイは炎を操るエリン、海中を泳ぐトウマ、風を読むミラと出航した。嵐の中、氷塊や巨大な渦が行く手を阻むが、仲間の力を合わせ突破した。

　嵐の先には黄金の島と財宝が眠っており、カイたちは無事に全ての財宝を持ち帰って財政難だった港町を救う。夜には宴がひらかれて皆喜んだ。ふと、カイが羅針盤に目をやると、羅針盤は再び別の方角を指し、次の冒険を告げていた。

"
"4441706","structured","5","209775","28000","output","1565","田中太郎は、子供のころから野球を見ることが好きであった。彼はもともとテレビで野球を見ているだけであったが、次第に自分でも野球がしたいと思うようになった。そのことを太郎は両親に相談したところ、地元で活動しているリトルリーグのチームを教えてもらった。太郎は興味があったので、このチームに入って野球を始めることにした。
"
"6157211","structured","4","193124","33000","output","912","1．ある日、人間がペットショップを覗いていると、ふと一つの水槽が目に入った。人間は一目見て魚に恋に落ちた。店員に自分が恋をしたことを伝えると、「頭がおかしいのか？」と嘲笑されてしまう。それでも、自分の恋心に正直になりたいと願った人間は、魚を購入しようとする。しかし、不審に思った店員に購入を断られてしまう。「そんなに買いたかったら10ば」"
"5227688","structured","12","431764","19000","planning","1795","山野ノボル60歳は定年退職を機に、憧れだった富士山登山に挑戦してみることにした。若い頃からひ弱で体力面には自信がなかったが、テレビや本の影響で富士山登山への思いは強まるばかり。
不安と期待を抱きつつ、山登りへの準備をすすめることにした。まずは体力作りのために1時間のウォーキングをすることにしたノボル。しかし思いの外、体力を消耗し30分歩くだけでバテテしまった。このままでは富士山どころではない。まずは体力作り、食事面などを見直すことにした。少しずつ体力を強化していくノボル。1時間のウォーキングもへばらずこなせるようになり、食後のプロテインを摂取したり余念がない。登山用グッズも揃えた。富士山へ挑む"
"4858226","structured","8","310895","34000","output","1087","ある日、突然ある国から伝染病が起き始める。
過去にない症状なので初めのころはパニック状態が続いた。
いろんな国の学者や医者がこの病原菌について調べ始めたが、なかなかいい答えが見つからなかった。
この病原菌のもっとも近くにいたのはその学者たちであったので、だんだんと学者たちにも感染者が増えていくことになる。
一番研究をしている人々が"
"4270487","structured","15","538069","24000","output","1150","私は都内の企業に勤めている市がないサラリーマンだ。毎日残業が多くやりがいはあるものの疲れがたまる一方の毎日を過ごしている。
先日大きなプロジェクトを終わらせたこともあり長期の休暇を取ってふと一人旅に出かけることにした。
時間に余裕があるので車を運転しての移動より普段はあまり使わないローカル線でののんびりとした旅をすることにした。

出発してしばらくは順調に旅程を進めることが出来たが、とある地方のローカル線でたまたま運悪く運休している区間がありその先に進むことが出来なくなった。
タクシーを拾って運休区間を進もうかと思ったが、結構な距離があり土地勘もないので費用面で難しいと感じバスなどの公共交通機関や振り替えがないかと方々問い合わせていると徐々に日が暮れてきた。
仮にバス路線があったとしても田舎であれば最終便時間も早いだろうし土地勘のない停留所で終点になったら目も当てられない。
ちょっと無計画な旅だったかと後悔しつつあきらめて岐路に"
"5231896","structured","8","322082","37000","output","2482","今までずっと生まれからずっとともに携わってい来たこの森を少しでも元気にするために、どうしても動きたくなった少年が、何かやり方がないのか、必死に考えていた。途方に暮れていたが、少女に出会った。その少女も同じ考えで、一緒に行動する事になった。その少女は助けられるアイテムを知っているという事で、一緒に探しに行きました。すぐに見つける事が出来ましたが、見つかった途端に、そのアイテムの権利のケンカに発展してしまいました。一緒に"
"6492409","structured","4","134244","21000","planning","2202","ある国に姉の妹のエマという王族の姉妹がいた。両親は死亡しており、姉が王女になる戴冠式を迎えようとしていた。だが、"
"5860381","structured","0","76987","42000","output","3179","馬券を購入した。事前にしっかりと予想をしたのでかなり自信が"
"201371","structured","3","335363","24000","revision","2244","カラスは、右の翼がわずかに短いため、他の仲間たちのように速く、高く飛べませんでした。いつも群れの後ろを飛び、見慣れた山間の集落で物思いにふけるのが彼の日常でした。

ある年、厳しい冬が訪れる兆しが見え、群れは温暖な南の森への大移動を決意します。カラスも必死に皆についていこうとしますが、体力はみるみるうちに消耗していきました。そして、旅の途中で嵐に遭い、ついに群れからはぐれてしまいます。傷ついた翼はさらに痛みを増し、たどり着いた見知らぬ森で動けなくなってしまいました。

絶望に打ちひしがれるカラスでしたが、故郷の集落で培われた鋭い観察力が彼を救います。他の動物たちが見向きもしない、人間の残した食べ物のありかを彼は知っていました。また、速く飛べない代わりに、彼は地面を歩き、低い木々を伝い、傷ついた翼でも安全に移動できる独自のルートを見つけ出します。そうして、彼はついに南の森へとたどり着くのです。

遅れて到着したカラスは、群れの仲間たちを驚かせました。彼がもたらした、人間の知恵を活かした食料の知識は、皆の食卓を豊かにし、カラスはいつしか群れの中で、なくてはならない存在になっていきました。彼の弱点だった翼は、彼が自分だけの強みを見つけるための、かけがえのない道しるべとなったのでした。"
"5138531","structured","3","118541","24000","output","1358","小さな町の片隅に魚屋があり、老夫婦がその魚屋で勤めていた。その町には猫がたくさん住んでいて、その中に立派な猫のリーダーである、タマキングと"
"4818552","structured","5","220247","33000","output","1565","少女は少し変わった性格をしていた。そのため、学校ではいつも一人だった。
そんな折、一人の生徒を殴ってしまい、その生徒の親御さんから訴えられてしまった。
訴えられて裁判沙汰になり、転校を余儀なくされた。
転校先の学校ではすでに少女のことが噂されており、"
"4277165","structured","0","45463","41000","planning","1680",
"4409144","structured","1","93336","44000","planning","2169","勉強が苦手な小学三年生のまみはどうしたらテストで良い点が取れるか悩んでいた。学校の帰り道に「勉強ができる鉛筆」と書かれた鉛筆を拾う「"
"276409","structured","11","436608","40000","output","2310","ある日目の前に先祖の幽霊が現れて自分の行いがあまりにも人の道から外れているので呪いをかけて3日以内に改心しなければあの世に連れて行ってやると脅された。解決する方法は2人の他人から感謝されるようなことをしなければならないと言われた。仕方がないので困っている人を探して救ううしかないと辺りを見回したけどそんな人はいなかった。どうしようかと"
"163607","structured","4","223008","39000","output","1314","　朝、毎日欠かさない庭に植えた植物の水やりをしながら庭の隅に目をやると、植えた覚えのない植物が芽を出している。
何処からか飛んできた種が芽吹いたのか小さな芽が可愛らしく、他の植物同様に水を掛けてやる。
　日に日に成長していく"
"4408530","structured","9","352673","37000","output","4606","5歳で柔道をはじめた健は、オリンピックを目指して毎日柔道に励んでいます。15歳になる頃、健は親に柔道の名門高校に進学したいとお願いします。そして、そこで柔道を始めますが、そこでは先輩からのいじめやシゴキが半端ではなく、限りなく地獄のような日々でした。しかし、健は挫けず何とか"
"5227688","structured","13","464735","30000","planning","1415","山野ノボル60歳は定年退職を機に、憧れだった富士山登山に挑戦してみることにした。若い頃からひ弱で体力面には自信がなかったが、テレビや本の影響で富士山登山への思いは強まるばかり。
不安と期待を抱きつつ、山登りへの準備をすすめることにした。まずは体力作りのために1時間のウォーキングをすることにしたノボル。しかし思いの外、体力を消耗し30分歩くだけでバテテしまった。このままでは富士山どころではない。まずは体力作り、食事面などを見直すことにした。少しずつ体力を強化していくノボル。1時間のウォーキングもへばらずこなせるようになり、食後のプロテインを摂取したり余念がない。登山用グッズも揃えた。富士山へ挑む日が近づいていた。ついに富士山登山へ挑むノボル。"
"5127776","structured","11","495995","39000","output","2072","港町に暮らす青年カイは、祖父から受け継いだ古い羅針盤を持っていた。この羅針盤は、選ばれしものに試練とほうび針はある日、みんなから恐れられる「黒嵐の海」をまっすぐ示すしていた。

　カイは炎を操るエリン、海中を泳ぐトウマ、風を読むミラと出航した。嵐の中、氷塊や巨大な渦が行く手を阻むが、仲間の力を合わせ突破した。

　嵐の先には黄金の島と財宝が眠っており、カイたちは無事に全ての財宝を持ち帰って財政難だった港町を救う。夜には宴がひらかれて皆喜んだ。ふと、カイが羅針盤に目をやると、羅針盤は再び別の方角を指し、次の冒険を告げていた。

"
"4858226","structured","9","343942","30000","output","933","ある日、突然ある国から伝染病が起き始める。
過去にない症状なので初めのころはパニック状態が続いた。
いろんな国の学者や医者がこの病原菌について調べ始めたが、なかなかいい答えが見つからなかった。
この病原菌のもっとも近くにいたのはその学者たちであったので、だんだんと学者たちにも感染者が増えていくことになる。
一番研究をしている人々が解決策を調べないといけないのだが、自らが感染してしまっているので、解決策はなかなか"
"4441706","structured","6","254710","40000","output","2067","田中太郎は、子供のころから野球を見ることが好きであった。彼はもともとテレビで野球を見ているだけであったが、次第に自分でも野球がしたいと思うようになった。そのことを太郎は両親に相談したところ、地元で活動しているリトルリーグのチームを教えてもらった。太郎は興味があったので、このチームに入って野球を始めることにした。
太郎は野球をすることが初めてあったので、チームに入った当初は、なかなかチームの練習についていｋ"
"201371","structured","4","365399","24000","other","2314","カラスは、右の翼がわずかに短いため、他の仲間たちのように速く、高く飛べませんでした。いつも群れの後ろを飛び、見慣れた山間の集落で物思いにふけるのが彼の日常でした。

ある年、厳しい冬が訪れる兆しが見え、群れは温暖な南の森への大移動を決意します。カラスも必死に皆についていこうとしますが、体力はみるみるうちに消耗していきました。そして、旅の途中で嵐に遭い、ついに群れからはぐれてしまいます。傷ついた翼はさらに痛みを増し、たどり着いた見知らぬ森で動けなくなってしまいました。

絶望に打ちひしがれるカラスでしたが、故郷の集落で培われた鋭い観察力が彼を救います。他の動物たちが見向きもしない、人間の残した食べ物のありかを彼は知っていました。また、速く飛べない代わりに、彼は地面を歩き、低い木々を伝い、傷ついた翼でも安全に移動できる独自のルートを見つけ出します。そうして、彼はついに南の森へとたどり着くのです。

遅れて到着したカラスは、群れの仲間たちを驚かせました。彼がもたらした、人間の知恵を活かした食料の知識は、皆の食卓を豊かにし、カラスはいつしか群れの中で、なくてはならない存在になっていきました。彼の弱点だった翼は、彼が自分だけの強みを見つけるための、かけがえのない道しるべとなったのでした。"
"6157211","structured","5","241152","45000","output","1006","1．ある日、人間がペットショップを覗いていると、ふと一つの水槽が目に入った。人間は一目見て魚に恋に落ちた。店員に自分が恋をしたことを伝えると、「頭がおかしいのか？」と嘲笑されてしまう。それでも、自分の恋心に正直になりたいと願った人間は、魚を購入しようとする。しかし、不審に思った店員に購入を断られてしまう。「そんなに買いたかったら10倍の値段でなら売るよ」と言われてしまい、途方に暮れる人間。さらに、人間は自分の部屋では魚を買うことができるスペースがないことに"
"4409144","structured","2","113850","17000","revision","1658","勉強が苦手な小学三年生のまみはどうしたらテストで良い点が取れるか悩んでいた。学校の帰り道に「勉強ができる鉛筆」と書かれた鉛筆を拾う。その鉛筆は握っているとつ"
"4270487","structured","16","584430","44000","output","1119","私は都内の企業に勤めている市がないサラリーマンだ。毎日残業が多くやりがいはあるものの疲れがたまる一方の毎日を過ごしている。
先日大きなプロジェクトを終わらせたこともあり長期の休暇を取ってふと一人旅に出かけることにした。
時間に余裕があるので車を運転しての移動より普段はあまり使わないローカル線でののんびりとした旅をすることにした。

出発してしばらくは順調に旅程を進めることが出来たが、とある地方のローカル線でたまたま運悪く運休している区間がありその先に進むことが出来なくなった。
タクシーを拾って運休区間を進もうかと思ったが、結構な距離があり土地勘もないので費用面で難しいと感じバスなどの公共交通機関や振り替えがないかと方々問い合わせていると徐々に日が暮れてきた。
仮にバス路線があったとしても田舎であれば最終便時間も早いだろうし土地勘のない停留所で終点になったら目も当てられない。
ちょっと無計画な旅だったかと後悔しつつあきらめて岐路につくべきか悩んでいたところたまたま居合わせた地元民と思われる人にどうしたのかと声をかけられた。
事情を"
"6492409","structured","5","175834","37000","output","1309","ある国に姉のアサと妹のエマという王族の姉妹がいた。両親は死亡しており、姉が王女になる戴冠式を迎えようとしていた。だが、アサには炎を操る魔法の能力があり、そのことをかくしｔ"
"5231896","structured","9","369160","43000","output","2216","今までずっと生まれからずっとともに携わってい来たこの森を少しでも元気にするために、どうしても動きたくなった少年が、何かやり方がないのか、必死に考えていた。途方に暮れていたが、少女に出会った。その少女も同じ考えで、一緒に行動する事になった。その少女は助けられるアイテムを知っているという事で、一緒に探しに行きました。すぐに見つける事が出来ましたが、見つかった途端に、そのアイテムの権利のケンカに発展してしまいました。一緒に解決するつもりだったのに、けんかになってしまって、居心地の悪い感じになりました。二人でもめているｓ"
"5127776","structured","12","519236","20000","planning","1735","港町に暮らす青年カイは、祖父から受け継いだ古い羅針盤を持っていた。この羅針盤は、選ばれしものに試練と褒美を与えてくれるという言い伝えがあった。針はある日、みんなから恐れられる「黒嵐の海」をまっすぐ示すしていた。

　カイは炎を操るエリン、海中を泳ぐトウマ、風を読むミラと出航した。嵐の中、氷塊や巨大な渦が行く手を阻むが、仲間の力を合わせ突破した。

　嵐の先には黄金の島と財宝が眠っており、カイたちは無事に全ての財宝を持ち帰って財政難だった港町を救う。夜には宴がひらかれて皆喜んだ。ふと、カイが羅針盤に目をやると、羅針盤は再び別の方角を指し、次の冒険を告げていた。

"
"4277165","structured","1","77383","28000","planning","1936",
"5138531","structured","4","165734","44000","planning","1182","小さな町の片隅に魚屋があり、老夫婦がその魚屋で勤めていた。その町には猫がたくさん住んでいて、その中に立派な猫のリーダーである、タマキングと呼ばれる猫がいた。魚屋の店主は本来は捨てるはずの"
"4408530","structured","10","383596","26000","revision","3356","5歳で柔道をはじめた健は、オリンピックを目指して毎日柔道に励んでいます。15歳になる頃、健は親に柔道の名門高校に進学したいとお願いします。そして、そこで柔道を始めますが、そこでは先輩からのいじめやシゴキが半端ではなく、限りなく地獄のような日々でした。しかし、健は挫けず頑張りぬきました。そｓｈ"
"4818552","structured","6","266111","41000","revision","1597","少女は少し変わった性格をしていた。そのため、学校ではいつも一人だった。
そんな折、一人の生徒を殴ってしまい、その生徒の親御さんから訴えられてしまった。
訴えられて裁判沙汰になり、転校を余儀なくされた。
転校先の学校ではすでに少女のことが噂されており、好奇と蔑まれた視線に晒されていた。"
"5860381","structured","1","127948","45000","output","2253","馬券を購入した。事前にしっかりと予想をしたのでかなり自信がありとても楽しみだ。自分が購入した馬券を見てみると、予想した馬とはｂ"
"163607","structured","5","258903","33000","planning","1950","　朝、毎日欠かさない庭に植えた植物の水やりをしながら庭の隅に目をやると、植えた覚えのない植物が芽を出している。
何処からか飛んできた種が芽吹いたのか小さな芽が可愛らしく、他の植物同様に水を掛けてやる。
　日に日に成長していく名も知らぬ植物は1週間もすると"
"4441706","structured","7","282223","22000","output","2944","田中太郎は、子供のころから野球を見ることが好きであった。彼はもともとテレビで野球を見ているだけであったが、次第に自分でも野球がしたいと思うようになった。そのことを太郎は両親に相談したところ、地元で活動しているリトルリーグのチームを教えてもらった。太郎は興味があったので、このチームに入って野球を始めることにした。
太郎は野球をすることが初めてあったので、チームに入った当初は、なかなかチームの練習についていくことができなかった。太郎はち"
"276409","structured","12","476496","36000","output","2479","ある日目の前に先祖の幽霊が現れて自分の行いがあまりにも人の道から外れているので呪いをかけて3日以内に改心しなければあの世に連れて行ってやると脅された。解決する方法は2人の他人から感謝されるようなことをしなければならないと言われた。仕方がないので困っている人を探して救ううしかないと辺りを見回したけどそんな人はいなかった。どうしようかと立ち尽くしていたらとつぜ雨が降ってきたので"
"6492409","structured","6","193920","15000","output","1116","ある国に姉のアサと妹のエマという王族の姉妹がいた。両親は死亡しており、姉が王女になる戴冠式を迎えようとしていた。だが、アサには炎を操る魔法の能力があり、そのことを隠して生きてきた。戴冠式"
"4858226","structured","10","377913","31000","planning","1196","ある日、突然ある国から伝染病が起き始める。
過去にない症状なので初めのころはパニック状態が続いた。
いろんな国の学者や医者がこの病原菌について調べ始めたが、なかなかいい答えが見つからなかった。
この病原菌のもっとも近くにいたのはその学者たちであったので、だんだんと学者たちにも感染者が増えていくことになる。
一番研究をしている人々が解決策を調べないといけないのだが、自らが感染してしまっているので、解決策はなかなかみつからず、難航していた。
"
"6157211","structured","6","266831","23000","output","806","1．ある日、人間がペットショップを覗いていると、ふと一つの水槽が目に入った。人間は一目見て魚に恋に落ちた。店員に自分が恋をしたことを伝えると、「頭がおかしいのか？」と嘲笑されてしまう。それでも、自分の恋心に正直になりたいと願った人間は、魚を購入しようとする。しかし、不審に思った店員に購入を断られてしまう。「そんなに買いたかったら10倍の値段でなら売るよ」と言われてしまい、途方に暮れる人間。さらに、人間は自分の部屋では魚を買うことができるスペースがないことを思い出す。それでも魚とのこいを"
"5227688","structured","14","509191","40000","output","2078","山野ノボル60歳は定年退職を機に、憧れだった富士山登山に挑戦してみることにした。若い頃からひ弱で体力面には自信がなかったが、テレビや本の影響で富士山登山への思いは強まるばかり。
不安と期待を抱きつつ、山登りへの準備をすすめることにした。まずは体力作りのために1時間のウォーキングをすることにしたノボル。しかし思いの外、体力を消耗し30分歩くだけでバテテしまった。このままでは富士山どころではない。まずは体力作り、食事面などを見直すことにした。少しずつ体力を強化していくノボル。1時間のウォーキングもへばらずこなせるようになり、食後のプロテインを摂取したり余念がない。登山用グッズも揃えた。富士山へ挑む日が近づいていた。ついに富士山登山へ挑むノボル。不安と緊張、興奮を胸に一歩一歩登っていく。途中、雨に見舞われたり"
"5127776","structured","13","538352","16000","planning","1844","港町に暮らす青年カイは、祖父から受け継いだ古い羅針盤を持っていた。この羅針盤は、選ばれしものに試練と褒美を与えてくれるという言い伝えがあった。針はある日、みんなから恐れられる「黒嵐の海」をまっすぐ示すしていた。

　カイは炎を操るエリン、海中を泳ぐトウマ、風を読むミラと出航した。嵐の中、氷塊や巨大な渦が行く手を阻むが、仲間の力を合わせ突破した。

　嵐の先には黄金の島と財宝が眠っており、カイたちは無事に全ての財宝を持ち帰って財政難だった港町を救う。夜には宴がひらかれて皆喜んだ。ふと、カイが羅針盤に目をやると、羅針盤は再び別の方角を指し、次の冒険を告げていた。

"
"5231896","structured","10","396071","23000","output","1975","今までずっと生まれからずっとともに携わってい来たこの森を少しでも元気にするために、どうしても動きたくなった少年が、何かやり方がないのか、必死に考えていた。途方に暮れていたが、少女に出会った。その少女も同じ考えで、一緒に行動する事になった。その少女は助けられるアイテムを知っているという事で、一緒に探しに行きました。すぐに見つける事が出来ましたが、見つかった途端に、そのアイテムの権利のケンカに発展してしまいました。一緒に解決するつもりだったのに、けんかになってしまって、居心地の悪い感じになりました。二人でもめている最中に、キラッそのアイテムが光り始めて、一筋のひ"
"5860381","structured","2","150516","18000","output","1808","馬券を購入した。事前にしっかりと予想をしたのでかなり自信がありとても楽しみだ。自分が購入した馬券を見てみると、予想した馬とは別な馬を購入していたことに気づいた"
"201371","structured","5","408683","35000","revision","3278","カラスは、右の翼がわずかに短いため、他の仲間たちのように速く、高く飛べませんでした。いつも群れの後ろを飛び、見慣れた山間の集落で物思いにふけるのが彼の日常でした。

ある年、厳しい冬が訪れる兆しが見え、群れは温暖な南の森への大移動を決意します。カラスも必死に皆についていこうとしますが、体力はみるみるうちに消耗していきました。そして、旅の途中で嵐に遭い、ついに群れからはぐれてしまいます。傷ついた翼はさらに痛みを増し、たどり着いた見知らぬ森で動けなくなってしまいました。

絶望に打ちひしがれるカラスでしたが、故郷の集落で培われた鋭い観察力が彼を救います。他の動物たちが見向きもしない、人間の残した食べ物のありかを彼は知っていました。また、速く飛べない代わりに、彼は地面を歩き、低い木々を伝い、傷ついた翼でも安全に移動できる独自のルートを見つけ出します。そうして、彼はついに南の森へとたどり着くのです。

遅れて到着したカラスは、群れの仲間たちを驚かせました。彼がもたらした、人間の知恵を活かした食料の知識は、皆の食卓を豊かにし、カラスはいつしか群れの中で、なくてはならない存在になっていきました。彼の弱点だった翼は、彼が自分だけの強みを見つけるための、かけがえのない道しるべとなったのでした。"
"4409144","structured","3","155984","39000","planning","1377","勉強が苦手な小学三年生のまみはどうしたらテストで良い点が取れるか悩んでいた。学校の帰り道に「勉強ができる鉛筆」と書かれた鉛筆を拾う。その鉛筆は握っていると笑い声が聞こえてきたり、泣き声が聞こえたりする不思議な"
"4858226","structured","11","398929","17000","output","1592","ある日、突然ある国から伝染病が起き始める。
過去にない症状なので初めのころはパニック状態が続いた。
いろんな国の学者や医者がこの病原菌について調べ始めたが、なかなかいい答えが見つからなかった。
この病原菌のもっとも近くにいたのはその学者たちであったので、だんだんと学者たちにも感染者が増えていくことになる。
一番研究をしている人々が解決策を調べないといけないのだが、自らが感染してしまっているので、解決策はなかなかみつからず、難航していた。
しばらくその流れが続いたころ、"
"4408530","structured","11","413418","26000","output","2679","5歳で柔道をはじめた健は、オリンピックを目指して毎日柔道に励んでいます。15歳になる頃、健は親に柔道の名門高校に進学したいとお願いします。そして、そこで柔道を始めますが、そこでは先輩からのいじめやシゴキが半端ではなく、限りなく地獄のような日々でした。しかし、健は挫けず頑張りぬきました。そして、高校3年の県大会では見事優勝に輝き"
"6492409","structured","7","216075","18000","output","2136","ある国に姉のアサと妹のエマという王族の姉妹がいた。両親は死亡しており、姉が王女になる戴冠式を迎えようとしていた。だが、アサには炎を操る魔法の能力があり、そのことを隠して生きてきた。戴冠式当日になり、アサの魔法が誤って"
"5138531","structured","5","197077","29000","output","997","小さな町の片隅に魚屋があり、老夫婦がその魚屋で勤めていた。その町には猫がたくさん住んでいて、その中に立派な猫のリーダーである、タマキングと呼ばれる猫がいた。魚屋の店主は本来は捨てるはずの魚の端切れを毎日猫たちにあげていた。
ある時、その"
"4277165","structured","2","112015","32000","output","1471","主人公の隆はごく普通の"
"2349425","structured","0","38258","32000","output","1091","Aは都内の学校に通う"
"163607","structured","6","290581","29000","output","1352","　朝、毎日欠かさない庭に植えた植物の水やりをしながら庭の隅に目をやると、植えた覚えのない植物が芽を出している。
何処からか飛んできた種が芽吹いたのか小さな芽が可愛らしく、他の植物同様に水を掛けてやる。
　日に日に成長していく名も知らぬ植物は1週間もすると大きさが30?にもなり、艶やかな緑のはｗ"
"4818552","structured","7","300783","31000","planning","1574","少女は少し変わった性格をしていた。そのため、学校ではいつも一人だった。
そんな折、一人の生徒を殴ってしまい、その生徒の親御さんから訴えられてしまった。
訴えられて裁判沙汰になり、転校を余儀なくされた。
転校先の学校ではすでに少女のことが噂されており、好奇と蔑まれた視線に晒されていた。
そんな折、一人の女子生徒が階段から落ちて亡くなった。始めは事故だと"
"4270487","structured","17","630709","44000","output","1143","私は都内の企業に勤めている市がないサラリーマンだ。毎日残業が多くやりがいはあるものの疲れがたまる一方の毎日を過ごしている。
先日大きなプロジェクトを終わらせたこともあり長期の休暇を取ってふと一人旅に出かけることにした。
時間に余裕があるので車を運転しての移動より普段はあまり使わないローカル線でののんびりとした旅をすることにした。

出発してしばらくは順調に旅程を進めることが出来たが、とある地方のローカル線でたまたま運悪く運休している区間がありその先に進むことが出来なくなった。
タクシーを拾って運休区間を進もうかと思ったが、結構な距離があり土地勘もないので費用面で難しいと感じバスなどの公共交通機関や振り替えがないかと方々問い合わせていると徐々に日が暮れてきた。
仮にバス路線があったとしても田舎であれば最終便時間も早いだろうし土地勘のない停留所で終点になったら目も当てられない。
ちょっと無計画な旅だったかと後悔しつつあきらめて岐路につくべきか悩んでいたところたまたま居合わせた地元民と思われる人にどうしたのかと声をかけられた。
事情を説明して旅をあきらめようかと話したところたまたま目的地方面に住んでいるということで車に乗せてもらえることになった。
せっかくたびにきｔ"
"5860381","structured","3","176417","17000","output","1685","馬券を購入した。事前にしっかりと予想をしたのでかなり自信がありとても楽しみだ。自分が購入した馬券を見てみると、予想した馬とは別な馬を購入していたことに気づいた。間違って購入してしまったのだ。"
"4441706","structured","8","327287","36000","planning","3190","田中太郎は、子供のころから野球を見ることが好きであった。彼はもともとテレビで野球を見ているだけであったが、次第に自分でも野球がしたいと思うようになった。そのことを太郎は両親に相談したところ、地元で活動しているリトルリーグのチームを教えてもらった。太郎は興味があったので、このチームに入って野球を始めることにした。
太郎は野球をすることが初めてあったので、チームに入った当初は、なかなかチームの練習についていくことができなかった。太郎はチームの中で一番下手な選手であったため、試合に出ることもできなかった。"
"2349425","structured","1","58676","16000","output","1217","Aは都内の学校に通う男子高生だ。
ある朝、鏡をm"
"4858226","structured","12","424131","22000","output","1842","ある日、突然ある国から伝染病が起き始める。
過去にない症状なので初めのころはパニック状態が続いた。
いろんな国の学者や医者がこの病原菌について調べ始めたが、なかなかいい答えが見つからなかった。
この病原菌のもっとも近くにいたのはその学者たちであったので、だんだんと学者たちにも感染者が増えていくことになる。
一番研究をしている人々が解決策を調べないといけないのだが、自らが感染してしまっているので、解決策はなかなかみつからず、難航していた。
しばらくその流れが続いたころ、急速に感染者が増えていたのが和らぎ始めた。"
"5227688","structured","15","550470","36000","planning","2405","山野ノボル60歳は定年退職を機に、憧れだった富士山登山に挑戦してみることにした。若い頃からひ弱で体力面には自信がなかったが、テレビや本の影響で富士山登山への思いは強まるばかり。
不安と期待を抱きつつ、山登りへの準備をすすめることにした。まずは体力作りのために1時間のウォーキングをすることにしたノボル。しかし思いの外、体力を消耗し30分歩くだけでバテテしまった。このままでは富士山どころではない。まずは体力作り、食事面などを見直すことにした。少しずつ体力を強化していくノボル。1時間のウォーキングもへばらずこなせるようになり、食後のプロテインを摂取したり余念がない。登山用グッズも揃えた。富士山へ挑む日が近づいていた。ついに富士山登山へ挑むノボル。不安と緊張、興奮を胸に一歩一歩登っていく。途中、雨に見舞われたりしながらも自分のペースを守り無事登頂を果たす。"
"276409","structured","13","526288","45000","planning","1999","ある日目の前に先祖の幽霊が現れて自分の行いがあまりにも人の道から外れているので呪いをかけて3日以内に改心しなければあの世に連れて行ってやると脅された。解決する方法は2人の他人から感謝されるようなことをしなければならないと言われた。仕方がないので困っている人を探して救ううしかないと辺りを見回したけどそんな人はいなかった。どうしようかと立ち尽くしていたら突然激しい雨が降ってきたのでこれだと思いコンビニに行って傘を2本買い"
"6157211","structured","7","313329","43000","output","1093","1．ある日、人間がペットショップを覗いていると、ふと一つの水槽が目に入った。人間は一目見て魚に恋に落ちた。店員に自分が恋をしたことを伝えると、「頭がおかしいのか？」と嘲笑されてしまう。それでも、自分の恋心に正直になりたいと願った人間は、魚を購入しようとする。しかし、不審に思った店員に購入を断られてしまう。「そんなに買いたかったら10倍の値段でなら売るよ」と言われてしまい、途方に暮れる人間。さらに、人間は自分の部屋では魚を買うことができるスペースがないことを思い出す。それでも魚との恋を成就させたい人間は、ギャンブルでお金を増やそうと試みる。突発的な考えだったが、見事ギャンブルは成功し、てもの"
"6492409","structured","8","244534","25000","output","1414","ある国に姉のアサと妹のエマという王族の姉妹がいた。両親は死亡しており、姉が王女になる戴冠式を迎えようとしていた。だが、アサには炎を操る魔法の能力があり、そのことを隠して生きてきた。戴冠式当日になり、アサの魔法が誤って発揮されてしまった。それでエマはやけどしてしまい、あｓ"
"163607","structured","7","316600","23000","output","1285","　朝、毎日欠かさない庭に植えた植物の水やりをしながら庭の隅に目をやると、植えた覚えのない植物が芽を出している。
何処からか飛んできた種が芽吹いたのか小さな芽が可愛らしく、他の植物同様に水を掛けてやる。
　日に日に成長していく名も知らぬ植物は1週間もすると大きさが30?にもなり、艶やかな緑の葉を付け立派にそだ"
"4818552","structured","8","326263","23000","output","996","少女は少し変わった性格をしていた。そのため、学校ではいつも一人だった。
そんな折、一人の生徒を殴ってしまい、その生徒の親御さんから訴えられてしまった。
訴えられて裁判沙汰になり、転校を余儀なくされた。
転校先の学校ではすでに少女のことが噂されており、好奇と蔑まれた視線に晒されていた。
そんな折、一人の女子生徒が階段から落ちて亡くなった。始めは事故だと思われたが、運悪く少女がそこを通りかかっあｔ"
"4277165","structured","3","144007","29000","planning","1447","主人公の隆はごく普通の男性で家族は妻と子の3人暮らしだ"
"5138531","structured","6","230141","31000","output","1039","小さな町の片隅に魚屋があり、老夫婦がその魚屋で勤めていた。その町には猫がたくさん住んでいて、その中に立派な猫のリーダーである、タマキングと呼ばれる猫がいた。魚屋の店主は本来は捨てるはずの魚の端切れを毎日猫たちにあげていた。
ある時、その魚屋でお店の魚が全て盗まれるという事件が起こった。ろうふう"
"4409144","structured","4","193512","34000","planning","1249","勉強が苦手な小学三年生のまみはどうしたらテストで良い点が取れるか悩んでいた。学校の帰り道に「勉強ができる鉛筆」と書かれた鉛筆を拾う。その鉛筆は握っていると笑い声が聞こえてきたり、泣き声が聞こえたりする不思議な鉛筆だった。
まみはその鉛筆を使って学校の予習や復習を"
"4408530","structured","12","449497","27000","output","4613","5歳で柔道をはじめた健は、オリンピックを目指して毎日柔道に励んでいます。15歳になる頃、健は親に柔道の名門高校に進学したいとお願いします。そして、そこで柔道を始めますが、そこでは先輩からのいじめやシゴキが半端ではなく、限りなく地獄のような日々でした。しかし、健は挫けず頑張りぬきました。そして、高校3年の県大会では見事優勝に輝き全国大会に出場しましたが、結果はベスト１"
"5231896","structured","11","444195","44000","output","2197","今までずっと生まれからずっとともに携わってい来たこの森を少しでも元気にするために、どうしても動きたくなった少年が、何かやり方がないのか、必死に考えていた。途方に暮れていたが、少女に出会った。その少女も同じ考えで、一緒に行動する事になった。その少女は助けられるアイテムを知っているという事で、一緒に探しに行きました。すぐに見つける事が出来ましたが、見つかった途端に、そのアイテムの権利のケンカに発展してしまいました。一緒に解決するつもりだったのに、けんかになってしまって、居心地の悪い感じになりました。二人でもめている最中に、キラッそのアイテムが光り始めて、一筋の光の筋が伸びていきました。驚いて顔を見合わせていると、その光の先に行きたくなって、背中を押されるように、ふｒ"
"4441706","structured","9","347007","15000","output","1496","田中太郎は、子供のころから野球を見ることが好きであった。彼はもともとテレビで野球を見ているだけであったが、次第に自分でも野球がしたいと思うようになった。そのことを太郎は両親に相談したところ、地元で活動しているリトルリーグのチームを教えてもらった。太郎は興味があったので、このチームに入って野球を始めることにした。
太郎は野球をすることが初めてあったので、チームに入った当初は、なかなかチームの練習についていくことができなかった。太郎はチームの中で一番下手な選手であったため、試合に出ることもできなかった。
太郎"
"5860381","structured","4","197485","18000","output","1587","馬券を購入した。事前にしっかりと予想をしたのでかなり自信がありとても楽しみだ。自分が購入した馬券を見てみると、予想した馬とは別な馬を購入していたことに気づいた。間違って購入してしまったのだ。しかし、"
"2349425","structured","2","79690","17000","output","1000","Aは都内の学校に通う男子高生だ。
ある朝、Aは鏡を見た自分の姿に驚いた。
"
"201371","structured","6","460665","45000","revision","2603","カラスは、右の翼がわずかに短いため、他の仲間たちのように速く、高く飛べませんでした。いつも群れの後ろを飛び、見慣れた山間の集落で物思いにふけるのが彼の日常でした。

ある年、厳しい冬が訪れる兆しが見え、群れは温暖な南の森への大移動を決意します。カラスも必死に皆についていこうとしますが、体力はみるみるうちに消耗していきました。そして、旅の途中で嵐に遭い、ついに群れからはぐれてしまいます。傷ついた翼はさらに痛みを増し、たどり着いた見知らぬ森で動けなくなってしまいました。

絶望に打ちひしがれるカラスでしたが、故郷の集落で培われた鋭い観察力が彼を救います。他の動物たちが見向きもしない、人間の残した食べ物のありかを彼は知っていました。また、速く飛べない代わりに、彼は地面を歩き、低い木々を伝い、傷ついた翼でも安全に移動できる独自のルートを見つけ出します。そうして、彼はついに南の森へとたどり着くのです。

遅れて到着したカラスは、群れの仲間たちを驚かせました。彼がもたらした、人間の知恵を活かした食料の知識は、皆の食卓を豊かにし、カラスはいつしか群れの中で、なくてはならない存在になっていきました。彼の弱点だった翼は、彼が自分だけの強みを見つけるための、かけがえのない道しるべとなったのでした。"
"4270487","structured","18","672461","39000","revision","1286","私は都内の企業に勤めている市がないサラリーマンだ。毎日残業が多くやりがいはあるものの疲れがたまる一方の毎日を過ごしている。
先日大きなプロジェクトを終わらせたこともあり長期の休暇を取ってふと一人旅に出かけることにした。
時間に余裕があるので車を運転しての移動より普段はあまり使わないローカル線でののんびりとした旅をすることにした。

出発してしばらくは順調に旅程を進めることが出来たが、とある地方のローカル線でたまたま運悪く運休している区間がありその先に進むことが出来なくなった。
タクシーを拾って運休区間を進もうかと思ったが、結構な距離があり土地勘もないので費用面で難しいと感じバスなどの公共交通機関や振り替えがないかと方々問い合わせていると徐々に日が暮れてきた。
仮にバス路線があったとしても田舎であれば最終便時間も早いだろうし土地勘のない停留所で終点になったら目も当てられない。
ちょっと無計画な旅だったかと後悔しつつあきらめて岐路につくべきか悩んでいたところたまたま居合わせた地元民と思われる人にどうしたのかと声をかけられた。
事情を説明して旅をあきらめようかと話したところたまたま目的地方面に住んでいるということで車に乗せてもらえることになった。
せっかく旅に来てくれたのなら楽しんでほしいと優しい言葉をかけてもらいとても暖かい気森になった。"
"6157211","structured","8","335310","19000","output","846","1．ある日、人間がペットショップを覗いていると、ふと一つの水槽が目に入った。人間は一目見て魚に恋に落ちた。店員に自分が恋をしたことを伝えると、「頭がおかしいのか？」と嘲笑されてしまう。それでも、自分の恋心に正直になりたいと願った人間は、魚を購入しようとする。しかし、不審に思った店員に購入を断られてしまう。「そんなに買いたかったら10倍の値段でなら売るよ」と言われてしまい、途方に暮れる人間。さらに、人間は自分の部屋では魚を買うことができるスペースがないことを思い出す。それでも魚との恋を成就させたい人間は、ギャンブルでお金を増やそうと試みる。突発的な考えだったが、見事ギャンブルは成功し、手元の資金が100倍に"
"163607","structured","8","335989","17000","output","1034","　朝、毎日欠かさない庭に植えた植物の水やりをしながら庭の隅に目をやると、植えた覚えのない植物が芽を出している。
何処からか飛んできた種が芽吹いたのか小さな芽が可愛らしく、他の植物同様に水を掛けてやる。
　日に日に成長していく名も知らぬ植物は1週間もすると大きさが30?にもなり、艶やかな緑の葉を付け立派に育っている様子に嬉しく"
"5227688","structured","16","578244","25000","planning","1641","山野ノボル60歳は定年退職を機に、憧れだった富士山登山に挑戦してみることにした。若い頃からひ弱で体力面には自信がなかったが、テレビや本の影響で富士山登山への思いは強まるばかり。
不安と期待を抱きつつ、山登りへの準備をすすめることにした。まずは体力作りのために1時間のウォーキングをすることにしたノボル。しかし思いの外、体力を消耗し30分歩くだけでバテテしまった。このままでは富士山どころではない。まずは体力作り、食事面などを見直すことにした。少しずつ体力を強化していくノボル。1時間のウォーキングもへばらずこなせるようになり、食後のプロテインを摂取したり余念がない。登山用グッズも揃えた。富士山へ挑む日が近づいていた。ついに富士山登山へ挑むノボル。不安と緊張、興奮を胸に一歩一歩登っていく。途中、雨に見舞われたりしながらも自分のペースを守り無事登頂を果たす。そんなノボルの努力に応えるように御来光も"
"5138531","structured","7","250702","18000","planning","846","小さな町の片隅に魚屋があり、老夫婦がその魚屋で勤めていた。その町には猫がたくさん住んでいて、その中に立派な猫のリーダーである、タマキングと呼ばれる猫がいた。魚屋の店主は本来は捨てるはずの魚の端切れを毎日猫たちにあげていた。
ある時、その魚屋でお店の魚が全て盗まれるという事件が起こった。魚が盗まれて困るのは老夫婦だけではなく、"
"4818552","structured","9","349983","21000","output","1138","少女は少し変わった性格をしていた。そのため、学校ではいつも一人だった。
そんな折、一人の生徒を殴ってしまい、その生徒の親御さんから訴えられてしまった。
訴えられて裁判沙汰になり、転校を余儀なくされた。
転校先の学校ではすでに少女のことが噂されており、好奇と蔑まれた視線に晒されていた。
そんな折、一人の女子生徒が階段から落ちて亡くなった。始めは事故だと思われたが、運悪く少女がそこを通りかかったことで犯人扱いされてしまう。
"
"4858226","structured","13","455631","29000","planning","997","ある日、突然ある国から伝染病が起き始める。
過去にない症状なので初めのころはパニック状態が続いた。
いろんな国の学者や医者がこの病原菌について調べ始めたが、なかなかいい答えが見つからなかった。
この病原菌のもっとも近くにいたのはその学者たちであったので、だんだんと学者たちにも感染者が増えていくことになる。
一番研究をしている人々が解決策を調べないといけないのだが、自らが感染してしまっているので、解決策はなかなかみつからず、難航していた。
しばらくその流れが続いたころ、急速に感染者が増えていたのが和らぎ始めた。
なぜかはわからないが、以前よりも感染が減ってきている"
"276409","structured","14","563279","32000","revision","2959","ある日目の前に先祖の幽霊が現れて自分の行いがあまりにも人の道から外れているので呪いをかけて5時間以内に改心しなければあの世に連れて行ってやると脅された。解決する方法は2人の他人から感謝されるようなことをしなければならないと言われた。仕方がないので困っている人を探して救ううしかないと辺りを見回したけどそんな人はいなかった。どうしようかと立ち尽くしていたら突然激しい雨が降ってきたのでこれだと思いコンビニに行って傘を2本買い誰か困ってい直いか探した"
"4409144","structured","5","225888","28000","output","1561","勉強が苦手な小学三年生のまみはどうしたらテストで良い点が取れるか悩んでいた。学校の帰り道に「勉強ができる鉛筆」と書かれた鉛筆を拾う。その鉛筆は握っていると笑い声が聞こえてきたり、泣き声が聞こえたりする不思議な鉛筆だった。
まみはその鉛筆を使って学校の予習や復習をなんとか毎日取り組むようにする。鉛筆から聞こえる"
"6492409","structured","9","284490","35000","output","2190","ある国に姉のアサと妹のエマという王族の姉妹がいた。両親は死亡しており、姉が王女になる戴冠式を迎えようとしていた。だが、アサには炎を操る魔法の能力があり、そのことを隠して生きてきた。戴冠式当日になり、アサの魔法が誤って発揮されてしまった。それでエマはやけどしてしまい、アサは怖くなり、逃亡してしまった。エマはなぜアサがいなくなってしまったのか"
"5231896","structured","12","477875","30000","revision","2240","今までずっと生まれからずっとともに携わってい来たこの森を少しでも元気にするために、どうしても動きたくなった少年が、何かやり方がないのか、必死に考えていた。途方に暮れていたが、少女に出会った。その少女も同じ考えで、一緒に行動する事になった。その少女は助けられるアイテムを知っているという事で、一緒に探しに行きました。すぐに見つける事が出来ましたが、見つかった途端に、そのアイテムの権利のケンカに発展してしまいました。一緒に解決するつもりだったのに、けんかになってしまって、居心地の悪い感じになりました。二人でもめている最中に、キラッそのアイテムが光り始めて、一筋の光の筋が伸びていきました。驚いて顔を見合わせていると、その光の先に行きたくなって、背中を押されるように、二人で見に行くと、さっきまでの森ではなくなって、"
"5860381","structured","5","229850","28000","output","1469","馬券を購入した。事前にしっかりと予想をしたのでかなり自信がありとても楽しみだ。自分が購入した馬券を見てみると、予想した馬とは別な馬を購入していたことに気づいた。間違って購入してしまったのだ。絶望感に苛まれながら諦めモードでレースを見ていたら、なんとまちがって"
"163607","structured","9","360080","21000","planning","1655","　朝、毎日欠かさない庭に植えた植物の水やりをしながら庭の隅に目をやると、植えた覚えのない植物が芽を出している。
何処からか飛んできた種が芽吹いたのか小さな芽が可愛らしく、他の植物同様に水を掛けてやる。
　日に日に成長していく名も知らぬ植物は1週間もすると大きさが30?にもなり、艶やかな緑の葉を付け立派に育っている様子に嬉しくなる。ある朝、名も知らぬかなに"
"5138531","structured","8","270388","15000","output","1101","小さな町の片隅に魚屋があり、老夫婦がその魚屋で勤めていた。その町には猫がたくさん住んでいて、その中に立派な猫のリーダーである、タマキングと呼ばれる猫がいた。魚屋の店主は本来は捨てるはずの魚の端切れを毎日猫たちにあげていた。
ある時、その魚屋でお店の魚が全て盗まれるという事件が起こった。魚が盗まれて困るのは老夫婦だけではなく、猫たちも同じだった。魚が"
"4277165","structured","4","186767","38000","revision","2320","はごく普通の男性で家族は妻と子の3人暮らしていたある日たかしは"
"1069349","structured","0","48133","42000","output","1458","「ココ」という宛先から"
"4408530","structured","13","492003","39000","output","2171","5歳で柔道をはじめた健は、オリンピックを目指して毎日柔道に励んでいます。15歳になる頃、健は親に柔道の名門高校に進学したいとお願いします。そして、そこで柔道を始めますが、そこでは先輩からのいじめやシゴキが半端ではなく、限りなく地獄のような日々でした。しかし、健は挫けず頑張りぬきました。そして、高校3年の県大会の個人戦では見事優勝に輝き全国大会に出場しましたが、結果はベスト８でした。じぶん"
"2349425","structured","3","113695","31000","output","1073","Aは都内の学校に通う男子高生だ。
ある朝、Aは鏡を見た自分の姿に驚いた。
なんと自分の姿が女性になっていた。
おどろ"
"4441706","structured","10","385718","34000","output","1987","田中太郎は、子供のころから野球を見ることが好きであった。彼はもともとテレビで野球を見ているだけであったが、次第に自分でも野球がしたいと思うようになった。そのことを太郎は両親に相談したところ、地元で活動しているリトルリーグのチームを教えてもらった。太郎は興味があったので、このチームに入って野球を始めることにした。
太郎は野球をすることが初めてあったので、チームに入った当初は、なかなかチームの練習についていくことができなかった。太郎はチームの中で一番下手な選手であったため、試合に出ることもできなかった。
太郎はベンチから試合を見ながら、いつの日か自分も試合に出たいと考えていた。そのた"
"4858226","structured","14","480459","22000","planning","1018","ある日、突然ある国から伝染病が起き始める。
過去にない症状なので初めのころはパニック状態が続いた。
いろんな国の学者や医者がこの病原菌について調べ始めたが、なかなかいい答えが見つからなかった。
この病原菌のもっとも近くにいたのはその学者たちであったので、だんだんと学者たちにも感染者が増えていくことになる。
一番研究をしている人々が解決策を調べないといけないのだが、自らが感染してしまっているので、解決策はなかなかみつからず、難航していた。
しばらくその流れが続いたころ、急速に感染者が増えていたのが和らぎ始めた。
なぜかはわからないが、以前よりも感染が減ってきている"
"6157211","structured","9","367776","29000","revision","1151","1．ある日、人間がペットショップを覗いていると、ふと一つの水槽が目に入った。人間は一目見て魚に恋に落ちた。店員に自分が恋をしたことを伝えると、「頭がおかしいのか？」と嘲笑されてしまう。それでも、自分の恋心に正直になりたいと願った人間は、魚を購入しようとする。しかし、不審に思った店員に購入を断られてしまう。「そんなに買いたかったら10倍の値段でなら売るよ」と言われてしまい、途方に暮れる人間。さらに、人間は自分の部屋では魚を買うことができるスペースがないことを思い出す。それでも魚との恋を成就させたい人間は、ギャンブルでお金を増やそうと試みる。突発的な考えだったが、見事ギャンブルは成功し、手元の資金が100倍になった。魚の購入資金をてに"
"4818552","structured","10","379519","27000","output","1252","少女は少し変わった性格をしていた。そのため、学校ではいつも一人だった。
そんな折、一人の生徒を殴ってしまい、その生徒の親御さんから訴えられてしまった。
訴えられて裁判沙汰になり、転校を余儀なくされた。
転校先の学校ではすでに少女のことが噂されており、好奇と蔑まれた視線に晒されていた。
そんな折、一人の女子生徒が階段から落ちて亡くなった。始めは事故だと思われたが、運悪く少女がそこを通りかかったことで犯人扱いされてしまう。
前歴のこともあり疑われるが、少女はみのけっぱ"
"201371","structured","7","498749","32000","other","3488","カラスは、右の翼がわずかに短いため、他の仲間たちのように速く、高く飛べませんでした。いつも群れの後ろを飛び、見慣れた山間の集落で物思いにふけるのが彼の日常でした。

ある年、厳しい冬が訪れる兆しが見え、群れは温暖な南の森への大移動を決意します。カラスも必死に皆についていこうとしますが、体力はみるみるうちに消耗していきました。そして、旅の途中で嵐に遭い、ついに群れからはぐれてしまいます。傷ついた翼はさらに痛みを増し、たどり着いた見知らぬ森で動けなくなってしまいました。

絶望に打ちひしがれるカラスでしたが、故郷の集落で培われた鋭い観察力が彼を救います。他の動物たちが見向きもしない、人間の残した食べ物のありかを彼は知っていました。また、速く飛べない代わりに、彼は地面を歩き、低い木々を伝い、傷ついた翼でも安全に移動できる独自のルートを見つけ出します。そうして、彼はついに南の森へとたどり着くのです。

遅れて到着したカラスは、群れの仲間たちを驚かせました。彼がもたらした、人間の知恵を活かした食料の知識は、皆の食卓を豊かにし、カラスはいつしか群れの中で、なくてはならない存在になっていきました。彼の弱点だった翼は、彼が自分だけの強みを見つけるための、かけがえのない道しるべとなったのでした。"
"4270487","structured","19","715796","41000","revision","1476","私は都内の企業に勤めている市がないサラリーマンだ。毎日残業が多くやりがいはあるものの疲れがたまる一方の毎日を過ごしている。
先日大きなプロジェクトを終わらせたこともあり長期の休暇を取ってふと一人旅に出かけることにした。
時間に余裕があるので車を運転しての移動より普段はあまり使わないローカル線でののんびりとした旅をすることにした。

出発してしばらくは順調に旅程を進めることが出来たが、とある地方のローカル線でたまたま運悪く運休している区間がありその先に進むことが出来なくなった。
タクシーを拾って運休区間を進もうかと思ったが、結構な距離があり土地勘もないので費用面で難しいと感じバスなどの公共交通機関や振り替えがないかと方々問い合わせていると徐々に日が暮れてきた。
仮にバス路線があったとしても田舎であれば最終便時間も早いだろうし土地勘のない停留所で終点になったら目も当てられない。
ちょっと無計画な旅だったかと後悔しつつあきらめて岐路につくべきか悩んでいたところたまたま居合わせた地元民と思われる人にどうしたのかと声をかけられた。
事情を説明して旅をあきらめようかと話したところたまたま目的地方面に住んでいるということで車に乗せてもらえることになった。
せっかく旅に来てくれたのなら楽しんでほしいと優しい言葉をかけてもらいとても暖かい気森になった。"
"6492409","structured","10","307971","20000","output","1516","ある国に姉のアサと妹のエマという王族の姉妹がいた。両親は死亡しており、姉が王女になる戴冠式を迎えようとしていた。だが、アサには炎を操る魔法の能力があり、そのことを隠して生きてきた。戴冠式当日になり、アサの魔法が誤って発揮されてしまった。それでエマはやけどしてしまい、アサは怖くなり、逃亡してしまった。エマはなぜアサがいなくなってしまったのか分からず、必死で追いかけた。エマを傷つけたくない"
"4409144","structured","6","250215","20000","output","1351","勉強が苦手な小学三年生のまみはどうしたらテストで良い点が取れるか悩んでいた。学校の帰り道に「勉強ができる鉛筆」と書かれた鉛筆を拾う。その鉛筆は握っていると笑い声が聞こえてきたり、泣き声が聞こえたりする不思議な鉛筆だった。
まみはその鉛筆を使って学校の予習や復習をなんとか毎日取り組むようにする。鉛筆から聞こえる笑い声や鳴き声に邪魔されながらも、い"
"5227688","structured","17","620654","39000","planning","2164","山野ノボル60歳は定年退職を機に、憧れだった富士山登山に挑戦してみることにした。若い頃からひ弱で体力面には自信がなかったが、テレビや本の影響で富士山登山への思いは強まるばかり。
不安と期待を抱きつつ、山登りへの準備をすすめることにした。まずは体力作りのために1時間のウォーキングをすることにしたノボル。しかし思いの外、体力を消耗し30分歩くだけでバテテしまった。このままでは富士山どころではない。まずは体力作り、食事面などを見直すことにした。少しずつ体力を強化していくノボル。1時間のウォーキングもへばらずこなせるようになり、食後のプロテインを摂取したり余念がない。登山用グッズも揃えた。富士山へ挑む日が近づいていた。ついに富士山登山へ挑むノボル。不安と緊張、興奮を胸に一歩一歩登っていく。途中、雨に見舞われたりしながらも自分のペースを守り無事登頂を果たす。そんなノボルの努力に応えるように御来光も綺麗に現れ、感無量のノボル。今までの"
"5138531","structured","9","292910","18000","output","1063","小さな町の片隅に魚屋があり、老夫婦がその魚屋で勤めていた。その町には猫がたくさん住んでいて、その中に立派な猫のリーダーである、タマキングと呼ばれる猫がいた。魚屋の店主は本来は捨てるはずの魚の端切れを毎日猫たちにあげていた。
ある時、その魚屋でお店の魚が全て盗まれるという事件が起こった。魚が盗まれて困るのは老夫婦だけではなく、猫たちも同じだった。魚が無くなってしまうと猫たちが食べるものも無くなってしまう。そこで、"
"5231896","structured","13","505301","23000","output","2037","今までずっと生まれからずっとともに携わってい来たこの森を少しでも元気にするために、どうしても動きたくなった少年が、何かやり方がないのか、必死に考えていた。途方に暮れていたが、少女に出会った。その少女も同じ考えで、一緒に行動する事になった。その少女は助けられるアイテムを知っているという事で、一緒に探しに行きました。すぐに見つける事が出来ましたが、見つかった途端に、そのアイテムの権利のケンカに発展してしまいました。一緒に解決するつもりだったのに、けんかになってしまって、居心地の悪い感じになりました。二人でもめている最中に、キラッそのアイテムが光り始めて、一筋の光の筋が伸びていきました。驚いて顔を見合わせていると、その光の先に行きたくなって、背中を押されるように、二人で見に行くと、さっきまでの森ではなくなって、昔の一番元気があった頃の森になっていて、二人で"
"276409","structured","15","603200","35000","output","3640","ある日目の前に先祖の幽霊が現れて自分の行いがあまりにも人の道から外れているので呪いをかけて5時間以内に改心しなければあの世に連れて行ってやると脅された。解決する方法は2人の他人から感謝されるようなことをしなければならないと言われた。仕方がないので困っている人を探して救ううしかないと辺りを見回したけどそんな人はいなかった。どうしようかと立ち尽くしていたら突然激しい雨が降ってきたのでこれだと思いコンビニに行って傘を2本買い誰か困っていないか探したらほとんどの人がかさをもっていなかった"
"4441706","structured","11","410399","16000","output","6051","田中太郎は、子供のころから野球を見ることが好きであった。彼はもともとテレビで野球を見ているだけであったが、次第に自分でも野球がしたいと思うようになった。そのことを太郎は両親に相談したところ、地元で活動しているリトルリーグのチームを教えてもらった。太郎は興味があったので、このチームに入って野球を始めることにした。
太郎は野球をすることが初めてあったので、チームに入った当初は、なかなかチームの練習についていくことができなかった。太郎はチームの中で一番下手な選手であったため、試合に出ることもできなかった。
太郎はベンチから試合を見ながら、いつの日か自分も試合に出たいと考えていた。そのために太郎はずっと真面目"
"163607","structured","10","391660","29000","output","1579","　朝、毎日欠かさない庭に植えた植物の水やりをしながら庭の隅に目をやると、植えた覚えのない植物が芽を出している。
何処からか飛んできた種が芽吹いたのか小さな芽が可愛らしく、他の植物同様に水を掛けてやる。
　日に日に成長していく名も知らぬ植物は1週間もすると大きさが30?にもなり、艶やかな緑の葉を付け立派に育っている様子に嬉しくなる。ある朝、名も知らぬ花に水をやりながら見てみると小さな"
"4277165","structured","5","217703","27000","output","2199","主人公のたかしはごく普通の男性で家族は妻と子の3人暮らしていたある"
"4818552","structured","11","403663","21000","output","1580","少女は少し変わった性格をしていた。そのため、学校ではいつも一人だった。
そんな折、一人の生徒を殴ってしまい、その生徒の親御さんから訴えられてしまった。
訴えられて裁判沙汰になり、転校を余儀なくされた。
転校先の学校ではすでに少女のことが噂されており、好奇と蔑まれた視線に晒されていた。
そんな折、一人の女子生徒が階段から落ちて亡くなった。始めは事故だと思われたが、運悪く少女がそこを通りかかったことで犯人扱いされてしまう。
前歴のこともあり疑われるが、少女は身の潔白を証明させるために、聞き込みを始める。"
"5860381","structured","6","265017","29000","revision","1515","馬券を購入した。事前にしっかりと予想をしたのでかなり自信がありとても楽しみだ。自分が購入した馬券を見てみると、予想した馬とは別な馬を購入していたことに気づいた。間違って購入してしまったのだ。絶望感に苛まれながら諦めモードでレースを見ていたら、なんと間違って購入した馬券が的中していた。"
"6157211","structured","10","395765","25000","revision","960","1．ある日、人間がペットショップを覗いていると、ふと一つの水槽が目に入った。人間は一目見て魚に恋に落ちた。店員に自分が恋をしたことを伝えると、「頭がおかしいのか？」と嘲笑されてしまう。それでも、自分の恋心に正直になりたいと願った人間は、魚を購入しようとする。しかし、不審に思った店員に購入を断られてしまう。「そんなに買いたかったら10倍の値段でなら売るよ」と言われてしまい、途方に暮れる人間。さらに、人間は自分の部屋では魚を買うことができるスペースがないことを思い出す。それでも魚との恋を成就させたい人間は、ギャンブルでお金を増やそうと試みる。突発的な考えだったが、見事ギャンブルは成功し、手元の資金が100倍になった。魚の購入資金ができた主人公は、まず、不動産に行って今よりも大きい部屋をかりｒこｔ"
"4408530","structured","14","525501","28000","revision","3640","5歳で柔道をはじめた健は、オリンピックを目指して毎日柔道に励んでいます。15歳になる頃、健は親に柔道の名門高校に進学したいとお願いします。そして、そこで柔道を始めますが、そこでは先輩からのいじめやシゴキが半端ではなく、限りなく地獄のような日々でした。しかし、健は挫けず頑張りぬきました。そして、高校3年の県大会の個人戦では見事優勝に輝き全国大会に出場しましたが、結果はベスト８でした。この時、健は自分の努力が報われた気持ちにないま"
"2349425","structured","4","147457","31000","output","1035","Aは都内の学校に通う男子高生だ。
ある朝、Aは鏡を見た自分の姿に驚いた。
なんと自分の姿が女性になっていた。
驚きつつも部屋から出て家族の様子を確認すると、家族のせいべつ"
"4409144","structured","7","272444","19000","output","1433","勉強が苦手な小学三年生のまみはどうしたらテストで良い点が取れるか悩んでいた。学校の帰り道に「勉強ができる鉛筆」と書かれた鉛筆を拾う。その鉛筆は握っていると笑い声が聞こえてきたり、泣き声が聞こえたりする不思議な鉛筆だった。
まみはその鉛筆を使って学校の予習や復習をなんとか毎日取り組むようにする。鉛筆から聞こえる笑い声や鳴き声に邪魔されながらも、自宅ではその鉛筆を使って学習する。学校ではせｎ"
"679574","structured","0","47134","40000","output","2123","のび太はいつものように、ジャイアンにいじめられた。今回の原因は、野球の試合でのび太が三振ばかりし、うてなか"
"5138531","structured","10","319062","24000","output","885","小さな町の片隅に魚屋があり、老夫婦がその魚屋で勤めていた。その町には猫がたくさん住んでいて、その中に立派な猫のリーダーである、タマキングと呼ばれる猫がいた。魚屋の店主は本来は捨てるはずの魚の端切れを毎日猫たちにあげていた。
ある時、その魚屋でお店の魚が全て盗まれるという事件が起こった。魚が盗まれて困るのは老夫婦だけではなく、猫たちも同じだった。魚が無くなってしまうと猫たちが食べるものも無くなってしまう。そこで、タマキングを中心としてねこたちｈ"
"4858226","structured","15","523120","40000","output","786","ある日、突然ある国から伝染病が起き始める。
過去にない症状なので初めのころはパニック状態が続いた。
いろんな国の学者や医者がこの病原菌について調べ始めたが、なかなかいい答えが見つからなかった。
この病原菌のもっとも近くにいたのはその学者たちであったので、だんだんと学者たちにも感染者が増えていくことになる。
一番研究をしている人々が解決策を調べないといけないのだが、自らが感染してしまっているので、解決策はなかなかみつからず、難航していた。
しばらくその流れが続いたころ、急速に感染者が増えていたのが和らぎ始めた。
なぜかはわからないが、以前よりも感染が減ってきているような感じがする。
そのころ、警察からある情報が入り始める。
どうやら"
"1069349","structured","1","95960","44000","output","1210","「ココ」という宛先から私のスマホにメールが来た。
バグっているのか、めーるのじかんが"
"2349425","structured","5","165105","15000","output","825","Aは都内の学校に通う男子高生だ。
ある朝、Aは鏡を見た自分の姿に驚いた。
なんと自分の姿が女性になっていた。
驚きつつも部屋から出て家族の様子を確認すると、家族の性別も変わっていた。
家族はA"
"4441706","structured","12","438559","22000","output","3542","田中太郎は、子供のころから野球を見ることが好きであった。彼はもともとテレビで野球を見ているだけであったが、次第に自分でも野球がしたいと思うようになった。そのことを太郎は両親に相談したところ、地元で活動しているリトルリーグのチームを教えてもらった。太郎は興味があったので、このチームに入って野球を始めることにした。
太郎は野球をすることが初めてあったので、チームに入った当初は、なかなかチームの練習についていくことができなかった。太郎はチームの中で一番下手な選手であったため、試合に出ることもできなかった。
太郎はベンチから試合を見ながら、いつの日か自分も試合に出たいと考えていた。そのために太郎はずっと真面目に練習を続けていたが、"
"6157211","structured","11","418557","20000","revision","790","1．ある日、人間がペットショップを覗いていると、ふと一つの水槽が目に入った。人間は一目見て魚に恋に落ちた。店員に自分が恋をしたことを伝えると、「頭がおかしいのか？」と嘲笑されてしまう。それでも、自分の恋心に正直になりたいと願った人間は、魚を購入しようとする。しかし、不審に思った店員に購入を断られてしまう。「そんなに買いたかったら10倍の値段でなら売るよ」と言われてしまい、途方に暮れる人間。さらに、人間は自分の部屋では魚を買うことができるスペースがないことを思い出す。それでも魚との恋を成就させたい人間は、ギャンブルでお金を増やそうと試みる。突発的な考えだったが、見事ギャンブルは成功し、手元の資金が100倍になった。魚の購入資金ができた主人公は、まず、不動産に行って今よりも大きい部屋を借りることにした。魚を"
"5231896","structured","14","537761","29000","planning","1728","今までずっと生まれからずっとともに携わってい来たこの森を少しでも元気にするために、どうしても動きたくなった少年が、何かやり方がないのか、必死に考えていた。途方に暮れていたが、少女に出会った。その少女も同じ考えで、一緒に行動する事になった。その少女は助けられるアイテムを知っているという事で、一緒に探しに行きました。すぐに見つける事が出来ましたが、見つかった途端に、そのアイテムの権利のケンカに発展してしまいました。一緒に解決するつもりだったのに、けんかになってしまって、居心地の悪い感じになりました。二人でもめている最中に、キラッそのアイテムが光り始めて、一筋の光の筋が伸びていきました。驚いて顔を見合わせていると、その光の先に行きたくなって、背中を押されるように、二人で見に行くと、さっきまでの森ではなくなって、昔の一番元気があった頃の森になっていて、二人ともとても喜びました。"
"4408530","structured","15","548681","19000","output","2977","5歳で柔道をはじめた健は、オリンピックを目指して毎日柔道に励んでいます。15歳になる頃、健は親に柔道の名門高校に進学したいとお願いします。そして、そこで柔道を始めますが、そこでは先輩からのいじめやシゴキが半端ではなく、限りなく地獄のような日々でした。しかし、健は挫けず頑張りぬきました。そして、高校3年の県大会の個人戦では見事優勝に輝き全国大会に出場しましたが、結果はベスト８でした。この時、健は自分の努力が報われた気持ちになりました。その後、大学はじょうきの"
"6492409","structured","11","352883","41000","output","1434","ある国に姉のアサと妹のエマという王族の姉妹がいた。両親は死亡しており、姉が王女になる戴冠式を迎えようとしていた。だが、アサには炎を操る魔法の能力があり、そのことを隠して生きてきた。戴冠式当日になり、アサの魔法が誤って発揮されてしまった。それでエマはやけどしてしまい、アサは怖くなり、逃亡してしまった。エマはなぜアサがいなくなってしまったのか分からず、必死で追いかけた。エマを傷つけたくないアサは慌ててるあまり、魔法を何度も使ってしまい町中ｇ"
"5227688","structured","18","668283","44000","planning","2501","山野ノボル60歳は定年退職を機に、憧れだった富士山登山に挑戦してみることにした。若い頃からひ弱で体力面には自信がなかったが、テレビや本の影響で富士山登山への思いは強まるばかり。
不安と期待を抱きつつ、山登りへの準備をすすめることにした。まずは体力作りのために1時間のウォーキングをすることにしたノボル。しかし思いの外、体力を消耗し30分歩くだけでバテテしまった。このままでは富士山どころではない。まずは体力作り、食事面などを見直すことにした。少しずつ体力を強化していくノボル。1時間のウォーキングもへばらずこなせるようになり、食後のプロテインを摂取したり余念がない。登山用グッズも揃えた。富士山へ挑む日が近づいていた。ついに富士山登山へ挑むノボル。不安と緊張、興奮を胸に一歩一歩登っていく。途中、雨に見舞われたりしながらも自分のペースを守り無事登頂を果たす。そんなノボルの努力に応えるように御来光も綺麗に現れ、感無量のノボル。今までのトレーニングは無駄ではなかったと喜びに浸るのであった。下山したの"
"163607","structured","11","429614","35000","revision","1519","　朝、毎日欠かさない庭に植えた植物の水やりをしながら庭の隅に目をやると、植えた覚えのない植物が芽を出している。
何処からか飛んできた種が芽吹いたのか小さな芽が可愛らしく、他の植物同様に水を掛けてやる。
　日に日に成長していく名も知らぬ植物は1週間もすると大きさが30?にもなり、艶やかな緑の葉を付け立派に育っている様子に嬉しくなる。ある朝、名も知らぬ花に水をやりながら見てみると小さなつぼみが付いている。どんな花を咲かせてくれるのか楽しみになり"
"5860381","structured","7","300351","32000","revision","1149","馬券を購入した。事前にしっかりと予想をしたのでかなり自信がありとても楽しみだ。自分が購入した馬券を見てみると、予想した馬とは別な馬を購入していたことに気づいた。間違って購入してしまったのだ。絶望感に苛まれながら諦めモードでレースを見ていたら、なんと間違って購入した馬券が的中していた。"
"276409","structured","16","644296","36000","revision","3135","ある日目の前に先祖の幽霊が現れて自分の行いがあまりにも人の道から外れているので呪いをかけて5時間以内に改心しなければあの世に連れて行ってやると脅された。解決する方法は2人の他人から感謝されるようなことをしなければならないと言われた。仕方がないので困っている人を探して救ううしかないと辺りを見回したけどそんな人はいなかった。どうしようかと立ち尽くしていたら突然激しい雨が降ってきたのでこれだと思いコンビニに行って傘を2本買い、誰か困っていないか探したらほとんどの人が傘を持っていなかったので"
"4277165","structured","6","258015","36000","output","2528","主人公のたかしはごく普通の男性で家族は妻と子の3人暮らしていたある日
家族旅行の途中で事故に合ってしまうめがｓ"
"4409144","structured","8","306912","30000","other","1897","勉強が苦手な小学三年生のまみはどうしたらテストで良い点が取れるか悩んでいた。学校の帰り道に「勉強ができる鉛筆」と書かれた鉛筆を拾う。その鉛筆は握っていると笑い声が聞こえてきたり、泣き声が聞こえたりする不思議な鉛筆だった。
まみはその鉛筆を使って学校の予習や復習をなんとか毎日取り組むようにする。鉛筆から聞こえる笑い声や鳴き声に邪魔されながらも、自宅ではその鉛筆を使って学習する。学校では先生や友達に勉強の分からない箇所を聞いたりして、以前よりも真面目に取り組むようになる。"
"4818552","structured","12","446151","38000","revision","1711","少女は少し変わった性格をしていた。そのため、学校ではいつも一人だった。
そんな折、一人の生徒を殴ってしまい、その生徒の親御さんから訴えられてしまった。
訴えられて裁判沙汰になり、転校を余儀なくされた。
転校先の学校ではすでに少女のことが噂されており、好奇と蔑まれた視線に晒されていた。
そんな折、一人の女子生徒が階段から落ちて亡くなった。始めは事故だと思われたが、運悪く少女がそこを通りかかったことで犯人扱いされてしまう。
前歴のこともあり疑われるが、少女は身の潔白を証明させるために、聞き込みを始める。始めは協力を断っていた同級生たちも彼女の本意気な態度と、"
"4441706","structured","13","458383","16000","output","1595","田中太郎は、子供のころから野球を見ることが好きであった。彼はもともとテレビで野球を見ているだけであったが、次第に自分でも野球がしたいと思うようになった。そのことを太郎は両親に相談したところ、地元で活動しているリトルリーグのチームを教えてもらった。太郎は興味があったので、このチームに入って野球を始めることにした。
太郎は野球をすることが初めてあったので、チームに入った当初は、なかなかチームの練習についていくことができなかった。太郎はチームの中で一番下手な選手であったため、試合に出ることもできなかった。
太郎はベンチから試合を見ながら、いつの日か自分も試合に出たいと考えていた。そのために太郎はずっと真面目に練習を続けていたが、どれだけ真面目に練習をしても、たｒ"
"5231896","structured","15","558435","18000","output","1067","今までずっと生まれからずっとともに携わってい来たこの森を少しでも元気にするために、どうしても動きたくなった少年が、何かやり方がないのか、必死に考えていた。途方に暮れていたが、少女に出会った。その少女も同じ考えで、一緒に行動する事になった。その少女は助けられるアイテムを知っているという事で、一緒に探しに行きました。すぐに見つける事が出来ましたが、見つかった途端に、そのアイテムの権利のケンカに発展してしまいました。一緒に解決するつもりだったのに、けんかになってしまって、居心地の悪い感じになりました。二人でもめている最中に、キラッそのアイテムが光り始めて、一筋の光の筋が伸びていきました。驚いて顔を見合わせていると、その光の先に行きたくなって、背中を押されるように、二人で見に行くと、さっきまでの森ではなくなって、昔の一番元気があった頃の森になっていて、二人ともとても喜びました。ケンカも気付いたら辞めていて、二人とも仲良くｍ"
"5138531","structured","11","351412","30000","output","924","小さな町の片隅に魚屋があり、老夫婦がその魚屋で勤めていた。その町には猫がたくさん住んでいて、その中に立派な猫のリーダーである、タマキングと呼ばれる猫がいた。魚屋の店主は本来は捨てるはずの魚の端切れを毎日猫たちにあげていた。
ある時、その魚屋でお店の魚が全て盗まれるという事件が起こった。魚が盗まれて困るのは老夫婦だけではなく、猫たちも同じだった。魚が無くなってしまうと猫たちが食べるものも無くなってしまう。そこで、タマキングを中心として猫たちは盗まれた魚を探すことを決意する。するとネズミたちのアジトを"
"114735","structured","0","36239","32000","planning","1821","二等兵クリスは"
"4858226","structured","16","557573","32000","planning","946","ある日、突然ある国から伝染病が起き始める。
過去にない症状なので初めのころはパニック状態が続いた。
いろんな国の学者や医者がこの病原菌について調べ始めたが、なかなかいい答えが見つからなかった。
この病原菌のもっとも近くにいたのはその学者たちであったので、だんだんと学者たちにも感染者が増えていくことになる。
一番研究をしている人々が解決策を調べないといけないのだが、自らが感染してしまっているので、解決策はなかなかみつからず、難航していた。
しばらくその流れが続いたころ、急速に感染者が増えていたのが和らぎ始めた。
なぜかはわからないが、以前よりも感染が減ってきているような感じがする。
そのころ、警察からある情報が入り始める。
どうやら感染源はある組織が作り出したもので、"
"6157211","structured","12","452268","30000","output","870","1．ある日、人間がペットショップを覗いていると、ふと一つの水槽が目に入った。人間は一目見て魚に恋に落ちた。店員に自分が恋をしたことを伝えると、「頭がおかしいのか？」と嘲笑されてしまう。それでも、自分の恋心に正直になりたいと願った人間は、魚を購入しようとする。しかし、不審に思った店員に購入を断られてしまう。「そんなに買いたかったら10倍の値段でなら売るよ」と言われてしまい、途方に暮れる人間。さらに、人間は自分の部屋では魚を買うことができるスペースがないことを思い出す。それでも魚との恋を成就させたい人間は、ギャンブルでお金を増やそうと試みる。突発的な考えだったが、見事ギャンブルは成功し、手元の資金が100倍になった。魚の購入資金ができた主人公は、まず、不動産に行って今よりも大きい部屋を借りることにした。魚と愛し合える十分なスペースの部屋を借りたあ"
"6492409","structured","12","386374","30000","output","1202","ある国に姉のアサと妹のエマという王族の姉妹がいた。両親は死亡しており、姉が王女になる戴冠式を迎えようとしていた。だが、アサには炎を操る魔法の能力があり、そのことを隠して生きてきた。戴冠式当日になり、アサの魔法が誤って発揮されてしまった。それでエマはやけどしてしまい、アサは怖くなり、逃亡してしまった。エマはなぜアサがいなくなってしまったのか分からず、必死で追いかけた。エマを傷つけたくないアサは慌ててるあまり、魔法を何度も使ってしまい町中を焼いてしまう。それでも、エマはアサのために多くの人の協力"
"276409","structured","17","671367","23000","output","2616","ある日目の前に先祖の幽霊が現れて自分の行いがあまりにも人の道から外れているので呪いをかけて5時間以内に改心しなければあの世に連れて行ってやると脅された。解決する方法は2人の他人から感謝されるようなことをしなければならないと言われた。仕方がないので困っている人を探して救ううしかないと辺りを見回したけどそんな人はいなかった。どうしようかと立ち尽くしていたら突然激しい雨が降ってきたのでこれだと思いコンビニに行って傘を2本買い、誰か困っていないか探したらほとんどの人が傘を持っていなかったので近くにいた人になか"
"4409144","structured","9","326108","16000","output","1402","勉強が苦手な小学三年生のまみはどうしたらテストで良い点が取れるか悩んでいた。学校の帰り道に「勉強ができる鉛筆」と書かれた鉛筆を拾う。その鉛筆は握っていると笑い声が聞こえてきたり、泣き声が聞こえたりする不思議な鉛筆だった。
まみはその鉛筆を使って学校の予習や復習をなんとか毎日取り組むようにする。鉛筆から聞こえる笑い声や鳴き声に邪魔されながらも、自宅ではその鉛筆を使って学習する。学校では先生や友達に勉強の分からない箇所を聞いたりして、以前よりも真面目に取り組むようになる。
その"
"679574","structured","1","99461","44000","output","1633","のび太はいつものように、ジャイアンにいじめられた。今回の原因は、野球の試合でのび太が三振ばかりし、打てなかったことだ。
そのため、のび太はジャイアンを見返そうと、ドラえもんにお願いをし、何か良い道具がないか聞いた。

すると、どら"
"163607","structured","12","459231","27000","output","1393","　朝、毎日欠かさない庭に植えた植物の水やりをしながら庭の隅に目をやると、植えた覚えのない植物が芽を出している。
何処からか飛んできた種が芽吹いたのか小さな芽が可愛らしく、他の植物同様に水を掛けてやる。
　日に日に成長していく名も知らぬ植物は1週間もすると大きさが30?にもなり、艶やかな緑の葉を付け立派に育っている様子に嬉しくなる。ある朝、名も知らぬ花に水をやりながら見てみると小さなつぼみが付いている。どんな花を咲かせてくれるのか楽しみになり開花が待ち遠しいと思えた。
　食朝、"
"1069349","structured","2","143759","44000","output","1073","「ココ」という宛先から私のスマホにメールが来た。
バグっているのか、メールの時間設定がおかしい。
少し怖いが、好奇心に勝てずメールをひらくｔ"
"4277165","structured","7","284015","22000","output","2175","主人公のたかしはごく普通の男性で家族は妻と子の3人暮らしていたある日
家族旅行の途中で事故に合ってしまう目が覚めるとそこは大学時代の部屋だった"
"4408530","structured","16","587441","35000","output","2575","5歳で柔道をはじめた健は、オリンピックを目指して毎日柔道に励んでいます。15歳になる頃、健は親に柔道の名門高校に進学したいとお願いします。そして、そこで柔道を始めますが、そこでは先輩からのいじめやシゴキが半端ではなく、限りなく地獄のような日々でした。しかし、健は挫けず頑張りぬきました。そして、高校3年の県大会の個人戦では見事優勝に輝き全国大会に出場しましたが、結果はベスト８でした。この時、健は自分の努力が報われた気持ちになりました。その後、大学は上記の成績により推薦で進むことになりました。"
"2349425","structured","6","209650","42000","output","833","Aは都内の学校に通う男子高生だ。
ある朝、Aは鏡を見た自分の姿に驚いた。
なんと自分の姿が女性になっていた。
驚きつつも部屋から出て家族の様子を確認すると、家族の性別も変わっていた。
家族はAの姿を見ても驚きもせず、当たり前のように接してきた。
Aは動揺しつつも、いつもどおり"
"5227688","structured","19","700149","28000","planning","1909","山野ノボル60歳は定年退職を機に、憧れだった富士山登山に挑戦してみることにした。若い頃からひ弱で体力面には自信がなかったが、テレビや本の影響で富士山登山への思いは強まるばかり。
不安と期待を抱きつつ、山登りへの準備をすすめることにした。まずは体力作りのために1時間のウォーキングをすることにしたノボル。しかし思いの外、体力を消耗し30分歩くだけでバテテしまった。このままでは富士山どころではない。まずは体力作り、食事面などを見直すことにした。少しずつ体力を強化していくノボル。1時間のウォーキングもへばらずこなせるようになり、食後のプロテインを摂取したり余念がない。登山用グッズも揃えた。富士山へ挑む日が近づいていた。ついに富士山登山へ挑むノボル。不安と緊張、興奮を胸に一歩一歩登っていく。途中、雨に見舞われたりしながらも自分のペースを守り無事登頂を果たす。そんなノボルの努力に応えるように御来光も綺麗に現れ、感無量のノボル。今までのトレーニングは無駄ではなかったと喜びに浸るのであった。下山したノボルは小腹が空いていたので、食堂でおでんとビールで"
"5860381","structured","8","333990","31000","revision","959","馬券を購入した。事前にしっかりと予想をしたのでかなり自信がありとても楽しみだ。自分が購入した馬券を見てみると、予想した馬とは別な馬を購入していたことに気づいた。間違って購入してしまったのだ。絶望感に苛まれながら諦めモードでレースを見ていたら、なんと間違って購入した馬券が的中していた。"
"114735","structured","1","62017","22000","planning","1285","アメリカ軍に入隊したばかりの二等兵クリス。彼は"
"4409144","structured","10","344943","16000","output","1322","勉強が苦手な小学三年生のまみはどうしたらテストで良い点が取れるか悩んでいた。学校の帰り道に「勉強ができる鉛筆」と書かれた鉛筆を拾う。その鉛筆は握っていると笑い声が聞こえてきたり、泣き声が聞こえたりする不思議な鉛筆だった。
まみはその鉛筆を使って学校の予習や復習をなんとか毎日取り組むようにする。鉛筆から聞こえる笑い声や鳴き声に邪魔されながらも、自宅ではその鉛筆を使って学習する。学校では先生や友達に勉強の分からない箇所を聞いたりして、以前よりも真面目に取り組むようになる。
その結果、いつの間にか勉強が自然と分かるようになり"
"5138531","structured","12","385716","32000","output","996","小さな町の片隅に魚屋があり、老夫婦がその魚屋で勤めていた。その町には猫がたくさん住んでいて、その中に立派な猫のリーダーである、タマキングと呼ばれる猫がいた。魚屋の店主は本来は捨てるはずの魚の端切れを毎日猫たちにあげていた。
ある時、その魚屋でお店の魚が全て盗まれるという事件が起こった。魚が盗まれて困るのは老夫婦だけではなく、猫たちも同じだった。魚が無くなってしまうと猫たちが食べるものも無くなってしまう。そこで、タマキングを中心として猫たちは盗まれた魚を探すことを決意する。するとネズミたちのアジトを見つけ、そこに大量の魚があｔ"
"4441706","structured","14","496822","34000","planning","2599","田中太郎は、子供のころから野球を見ることが好きであった。彼はもともとテレビで野球を見ているだけであったが、次第に自分でも野球がしたいと思うようになった。そのことを太郎は両親に相談したところ、地元で活動しているリトルリーグのチームを教えてもらった。太郎は興味があったので、このチームに入って野球を始めることにした。
太郎は野球をすることが初めてあったので、チームに入った当初は、なかなかチームの練習についていくことができなかった。太郎はチームの中で一番下手な選手であったため、試合に出ることもできなかった。
太郎はベンチから試合を見ながら、いつの日か自分も試合に出たいと考えていた。そのために太郎はずっと真面目に練習を続けていたが、どれだけ真面目に練習をしても、太郎は試合に出ることができなかった。
太郎は"
"4818552","structured","13","486039","37000","output","1562","少女は少し変わった性格をしていた。そのため、学校ではいつも一人だった。
そんな折、一人の生徒を殴ってしまい、その生徒の親御さんから訴えられてしまった。
訴えられて裁判沙汰になり、転校を余儀なくされた。
転校先の学校ではすでに少女のことが噂されており、好奇と蔑まれた視線に晒されていた。
そんな折、一人の女子生徒が階段から落ちて亡くなった。始めは事故だと思われたが、運悪く少女がそこを通りかかったことで犯人扱いされてしまう。
前歴のこともあり疑われるが、少女は身の潔白を証明させるために、聞き込みを始める。始めは協力を断っていた同級生たちも彼女の本意気な態度に、徐々に心を開き始めてともに解決しようと協力します。"
"4858226","structured","17","592518","31000","output","1754","ある日、突然ある国から伝染病が起き始める。
過去にない症状なので初めのころはパニック状態が続いた。
いろんな国の学者や医者がこの病原菌について調べ始めたが、なかなかいい答えが見つからなかった。
この病原菌のもっとも近くにいたのはその学者たちであったので、だんだんと学者たちにも感染者が増えていくことになる。
一番研究をしている人々が解決策を調べないといけないのだが、自らが感染してしまっているので、解決策はなかなかみつからず、難航していた。
しばらくその流れが続いたころ、急速に感染者が増えていたのが和らぎ始めた。
なぜかはわからないが、以前よりも感染が減ってきているような感じがする。
そのころ、警察からある情報が入り始める。
どうやら感染源はある組織が作り出したもので、国をパニックにするために作り出したという。"
"5231896","structured","16","599273","37000","planning","2204","今までずっと生まれからずっとともに携わってい来たこの森を少しでも元気にするために、どうしても動きたくなった少年が、何かやり方がないのか、必死に考えていた。途方に暮れていたが、少女に出会った。その少女も同じ考えで、一緒に行動する事になった。その少女は助けられるアイテムを知っているという事で、一緒に探しに行きました。すぐに見つける事が出来ましたが、見つかった途端に、そのアイテムの権利のケンカに発展してしまいました。一緒に解決するつもりだったのに、けんかになってしまって、居心地の悪い感じになりました。二人でもめている最中に、キラッそのアイテムが光り始めて、一筋の光の筋が伸びていきました。驚いて顔を見合わせていると、その光の先に行きたくなって、背中を押されるように、二人で見に行くと、さっきまでの森ではなくなって、昔の一番元気があった頃の森になっていて、二人ともとても喜びました。ケンカも気付いたら辞めていて、二人とも仲良く森で過ごしてゆきました。"
"276409","structured","18","701991","27000","output","1638","ある日目の前に先祖の幽霊が現れて自分の行いがあまりにも人の道から外れているので呪いをかけて5時間以内に改心しなければあの世に連れて行ってやると脅された。解決する方法は2人の他人から感謝されるようなことをしなければならないと言われた。仕方がないので困っている人を探して救ううしかないと辺りを見回したけどそんな人はいなかった。どうしようかと立ち尽くしていたら突然激しい雨が降ってきたのでこれだと思いコンビニに行って傘を2本買い、誰か困っていないか探したらほとんどの人が傘を持っていなかったので近くにいた人に半ば強引にさし傘を手渡して"
"4277165","structured","8","314383","26000","output","2559","主人公のたかしはごく普通の男性で家族は妻と子の3人暮らしていたある日
家族旅行の途中で事故に合ってしまう目が覚めるとそこは大学時代の部屋だったふとテレビに目をやるとｓ"
"6157211","structured","13","491348","36000","output","939","1．ある日、人間がペットショップを覗いていると、ふと一つの水槽が目に入った。人間は一目見て魚に恋に落ちた。店員に自分が恋をしたことを伝えると、「頭がおかしいのか？」と嘲笑されてしまう。それでも、自分の恋心に正直になりたいと願った人間は、魚を購入しようとする。しかし、不審に思った店員に購入を断られてしまう。「そんなに買いたかったら10倍の値段でなら売るよ」と言われてしまい、途方に暮れる人間。さらに、人間は自分の部屋では魚を買うことができるスペースがないことを思い出す。それでも魚との恋を成就させたい人間は、ギャンブルでお金を増やそうと試みる。突発的な考えだったが、見事ギャンブルは成功し、手元の資金が100倍になった。魚の購入資金ができた主人公は、まず、不動産に行って今よりも大きい部屋を借りることにした。魚と愛し合える十分なスペースの部屋を借りたあと、恋が始まったペットショップに行くことにした。意気揚々とおみ"
"4409144","structured","11","364074","16000","output","1142","勉強が苦手な小学三年生のまみはどうしたらテストで良い点が取れるか悩んでいた。学校の帰り道に「勉強ができる鉛筆」と書かれた鉛筆を拾う。その鉛筆は握っていると笑い声が聞こえてきたり、泣き声が聞こえたりする不思議な鉛筆だった。
まみはその鉛筆を使って学校の予習や復習をなんとか毎日取り組むようにする。鉛筆から聞こえる笑い声や鳴き声に邪魔されながらも、自宅ではその鉛筆を使って学習する。学校では先生や友達に勉強の分からない箇所を聞いたりして、以前よりも真面目に取り組むようになる。
その結果、いつの間にか勉強が自然と分かるようになり、「勉強ができる鉛筆」をつｋ"
"163607","structured","13","497887","36000","output","1224","　朝、毎日欠かさない庭に植えた植物の水やりをしながら庭の隅に目をやると、植えた覚えのない植物が芽を出している。
何処からか飛んできた種が芽吹いたのか小さな芽が可愛らしく、他の植物同様に水を掛けてやる。
　日に日に成長していく名も知らぬ植物は1週間もすると大きさが30?にもなり、艶やかな緑の葉を付け立派に育っている様子に嬉しくなる。ある朝、名も知らぬ花に水をやりながら見てみると小さなつぼみが付いている。どんな花を咲かせてくれるのか楽しみになり開花が待ち遠しいと思えた。
　食朝、名も知らぬ植物を見てみるとつぼみの周りに無数の"
"5860381","structured","9","368370","29000","other","1066","馬券を購入した。事前にしっかりと予想をしたのでかなり自信がありとても楽しみだ。自分が購入した馬券を見てみると、予想した馬とは別な馬を購入していたことに気づいた。間違って購入してしまったのだ。絶望感に苛まれながら諦めモードでレースを見ていたら、なんと間違って購入した馬券が的中していた。"
"6492409","structured","13","428221","39000","planning","1131","ある国に姉のアサと妹のエマという王族の姉妹がいた。両親は死亡しており、姉が王女になる戴冠式を迎えようとしていた。だが、アサには炎を操る魔法の能力があり、そのことを隠して生きてきた。戴冠式当日になり、アサの魔法が誤って発揮されてしまった。それでエマはやけどしてしまい、アサは怖くなり、逃亡してしまった。エマはなぜアサがいなくなってしまったのか分からず、必死で追いかけた。エマを傷つけたくないアサは慌ててるあまり、魔法を何度も使ってしまい町中を焼いてしまう。それでも、エマはアサのために多くの人の協力のもと、アサのもとに追いつく。二人は話し合い、た"
"4818552","structured","14","510879","22000","output","1362","少女は少し変わった性格をしていた。そのため、学校ではいつも一人だった。
そんな折、一人の生徒を殴ってしまい、その生徒の親御さんから訴えられてしまった。
訴えられて裁判沙汰になり、転校を余儀なくされた。
転校先の学校ではすでに少女のことが噂されており、好奇と蔑まれた視線に晒されていた。
そんな折、一人の女子生徒が階段から落ちて亡くなった。始めは事故だと思われたが、運悪く少女がそこを通りかかったことで犯人扱いされてしまう。
前歴のこともあり疑われるが、少女は身の潔白を証明させるために、聞き込みを始める。始めは協力を断っていた同級生たちも彼女の本意気な態度に、徐々に心を開き始めてともに解決しようと協力します。
すると、亡くなったｚ"
"679574","structured","2","143258","40000","revision","2299","のび太はいつものように、ジャイアンにいじめられた。今回の原因は、野球の試合でのび太が三振ばかりし、打てなかったことだ。
そのため、のび太はジャイアンを見返そうと、ドラえもんにお願いをし、何か良い道具がないか聞いた。

すると、ドラえもんは「打てるー！」という道具をのび太のために出した。これを使えば、誰もが簡単にホームランを打てるという魅力的なものだｔｔ"
"5227688","structured","20","740964","37000","planning","2736","山野ノボル60歳は定年退職を機に、憧れだった富士山登山に挑戦してみることにした。若い頃からひ弱で体力面には自信がなかったが、テレビや本の影響で富士山登山への思いは強まるばかり。
不安と期待を抱きつつ、山登りへの準備をすすめることにした。まずは体力作りのために1時間のウォーキングをすることにしたノボル。しかし思いの外、体力を消耗し30分歩くだけでバテテしまった。このままでは富士山どころではない。まずは体力作り、食事面などを見直すことにした。少しずつ体力を強化していくノボル。1時間のウォーキングもへばらずこなせるようになり、食後のプロテインを摂取したり余念がない。登山用グッズも揃えた。富士山へ挑む日が近づいていた。ついに富士山登山へ挑むノボル。不安と緊張、興奮を胸に一歩一歩登っていく。途中、雨に見舞われたりしながらも自分のペースを守り無事登頂を果たす。そんなノボルの努力に応えるように御来光も綺麗に現れ、感無量のノボル。今までのトレーニングは無駄ではなかったと喜びに浸るのであった。下山したノボルは小腹が空いていたので、食堂でおでんとビールを堪能。おでんに入っていたウィンナーが"
"4408530","structured","17","632529","39000","output","4115","5歳から柔道をはじめた健は、オリンピックを目指して毎日柔道に励んでいます。15歳になる頃、健は親に柔道の名門高校に進学したいとお願いします。そして、そこで柔道を始めますが、そこでは先輩からのいじめやシゴキが半端ではなく、限りなく地獄のような日々でした。しかし、健は挫けず頑張りぬきました。そして、高校3年の県大会の個人戦では見事優勝に輝き全国大会に出場しましたが、結果はベスト８でした。この時、健は自分の努力が報われた気持ちになりました。その後、大学は上記の成績により推薦で進むことになりました。そこではそれほど良いせいせき"
"1069349","structured","3","190934","43000","output","1272","「ココ」という宛先から私のスマホにメールが来た。
バグっているのか、メールの時間設定がおかしい。
少し怖いが、好奇心に勝てずメールを開くことにした。
「父さん、8月のお盆に実家に帰ります。しんぱいｓ」"
"2349425","structured","7","255607","40000","output","1135","Aは都内の学校に通う男子高生だ。
ある朝、Aは鏡を見た自分の姿に驚いた。
なんと自分の姿が女性になっていた。
驚きつつも部屋から出て家族の様子を確認すると、家族の性別も変わっていた。
家族はAの姿を見ても驚きもせず、当たり前のように接してきた。
Aは動揺しつつも、いつもどおりの生活をしておこうと思い、学校へ向かった。
学校でもクラスメイトの性別は変転しており、誰も不審に"
"6157211","structured","14","511118","17000","output","814","1．ある日、人間がペットショップを覗いていると、ふと一つの水槽が目に入った。人間は一目見て魚に恋に落ちた。店員に自分が恋をしたことを伝えると、「頭がおかしいのか？」と嘲笑されてしまう。それでも、自分の恋心に正直になりたいと願った人間は、魚を購入しようとする。しかし、不審に思った店員に購入を断られてしまう。「そんなに買いたかったら10倍の値段でなら売るよ」と言われてしまい、途方に暮れる人間。さらに、人間は自分の部屋では魚を買うことができるスペースがないことを思い出す。それでも魚との恋を成就させたい人間は、ギャンブルでお金を増やそうと試みる。突発的な考えだったが、見事ギャンブルは成功し、手元の資金が100倍になった。魚の購入資金ができた主人公は、まず、不動産に行って今よりも大きい部屋を借りることにした。魚と愛し合える十分なスペースの部屋を借りたあと、恋が始まったペットショップに行くことにした。意気揚々とお店のドアを開けると、そこには人間がこいしｔ"
"5138531","structured","13","422476","34000","planning","1128","小さな町の片隅に魚屋があり、老夫婦がその魚屋で勤めていた。その町には猫がたくさん住んでいて、その中に立派な猫のリーダーである、タマキングと呼ばれる猫がいた。魚屋の店主は本来は捨てるはずの魚の端切れを毎日猫たちにあげていた。
ある時、その魚屋でお店の魚が全て盗まれるという事件が起こった。魚が盗まれて困るのは老夫婦だけではなく、猫たちも同じだった。魚が無くなってしまうと猫たちが食べるものも無くなってしまう。そこで、タマキングを中心として猫たちは盗まれた魚を探すことを決意する。するとネズミたちのアジトを見つけ、そこに大量の魚があった。魚を盗んだのはネズミたちだった。そのネズミたちは"
"5231896","structured","17","632333","30000","planning","1010","生まれからずっとともに携わってい来たこの森を少しでも元気にするために、どうしても動きたくなった少年が、何かやり方がないのか、必死に考えていた。途方に暮れていたが、少女に出会った。その少女も同じ考えで、一緒に行動する事になった。その少女は助けられるアイテムを知っているという事で、一緒に探しに行きました。すぐに見つける事が出来ましたが、見つかった途端に、そのアイテムの権利のケンカに発展してしまいました。一緒に解決するつもりだったのに、けんかになってしまって、居心地の悪い感じになりました。二人でもめている最中に、キラッそのアイテムが光り始めて、一筋の光の筋が伸びていきました。驚いて顔を見合わせていると、その光の先に行きたくなって、背中を押されるように、二人で見に行くと、さっきまでの森ではなくなって、昔の一番元気があった頃の森になっていて、二人ともとても喜びました。ケンカも気付いたら辞めていて、二人とも仲良く森で過ごしてゆきました。"
"4858226","structured","18","626736","31000","planning","956","ある日、突然ある国から伝染病が起き始める。
過去にない症状なので初めのころはパニック状態が続いた。
いろんな国の学者や医者がこの病原菌について調べ始めたが、なかなかいい答えが見つからなかった。
この病原菌のもっとも近くにいたのはその学者たちであったので、だんだんと学者たちにも感染者が増えていくことになる。
一番研究をしている人々が解決策を調べないといけないのだが、自らが感染してしまっているので、解決策はなかなかみつからず、難航していた。
しばらくその流れが続いたころ、急速に感染者が増えていたのが和らぎ始めた。
なぜかはわからないが、以前よりも感染が減ってきているような感じがする。
そのころ、警察からある情報が入り始める。
どうやら感染源はある組織が作り出したもので、国をパニックにするために作り出したようだという。
結果その組織はその情報通り"
"114735","structured","2","110583","43000","other","2771","アメリカ軍に入隊したばかりの二等兵クリス。ある日、彼は重要な任務をアメリカ大統領から命じられることになる。どうして二等兵の彼に重要な"
"4277165","structured","9","343551","26000","output","1903","主人公のたかしはごく普通の男性で家族は妻と子の3人暮らしていたある日
家族旅行の途中で事故に合ってしまう目が覚めるとそこは大学時代の部屋だったふとテレビに目をやるとそこには昔好きだったテレビの"
"4409144","structured","12","394348","27000","output","1211","勉強が苦手な小学三年生のまみはどうしたらテストで良い点が取れるか悩んでいた。学校の帰り道に「勉強ができる鉛筆」と書かれた鉛筆を拾う。その鉛筆は握っていると笑い声が聞こえてきたり、泣き声が聞こえたりする不思議な鉛筆だった。
まみはその鉛筆を使って学校の予習や復習をなんとか毎日取り組むようにする。鉛筆から聞こえる笑い声や鳴き声に邪魔されながらも、自宅ではその鉛筆を使って学習する。学校では先生や友達に勉強の分からない箇所を聞いたりして、以前よりも真面目に取り組むようになる。
その結果、いつの間にか勉強が自然と分かるようになり、「勉強ができる鉛筆」を使わなくても自分自身の力でテストで良い点が取れるくらい"
"679574","structured","3","164391","16000","output","2396","のび太はいつものように、ジャイアンにいじめられた。今回の原因は、野球の試合でのび太が三振ばかりし、打てなかったことだ。
そのため、のび太はジャイアンを見返そうと、ドラえもんにお願いをし、何か良い道具がないか聞いた。

すると、ドラえもんは「打てるー！」という道具をのび太のために出した。これを使えば、誰もが簡単にホームランを打てるという魅力的なものだった。のび太は早速「」"
"4441706","structured","15","544254","40000","output","3122","田中太郎は、子供のころから野球を見ることが好きであった。彼はもともとテレビで野球を見ているだけであったが、次第に自分でも野球がしたいと思うようになった。そのことを太郎は両親に相談したところ、地元で活動しているリトルリーグのチームを教えてもらった。太郎は興味があったので、このチームに入って野球を始めることにした。
太郎は野球をすることが初めてあったので、チームに入った当初は、なかなかチームの練習についていくことができなかった。太郎はチームの中で一番下手な選手であったため、試合に出ることもできなかった。
太郎はベンチから試合を見ながら、いつの日か自分も試合に出たいと考えていた。そのために太郎はずっと真面目に練習を続けていたが、どれだけ真面目に練習をしても、太郎は試合に出ることができなかった。
太郎は次第に、練習をするのが辛くなってきた。いくら練習をしても試合にでられｎ"
"6492409","structured","14","457493","26000","revision","1146","ある国に姉のアサと妹のエマという王族の姉妹がいた。両親は死亡しており、姉が王女になる戴冠式を迎えようとしていた。だが、アサには炎を操る魔法の能力があり、そのことを隠して生きてきた。戴冠式当日になり、アサの魔法が誤って発揮されてしまった。それでエマはやけどしてしまい、アサは怖くなり、逃亡してしまった。エマはなぜアサがいなくなってしまったのか分からず、必死で追いかけた。エマを傷つけたくないアサは慌ててるあまり、魔法を何度も使ってしまい町中を焼いてしまう。それでも、エマはアサのために多くの人の協力のもと、アサのもとに追いつく。二人は話し合い、たくさんけんかにたが、やがて、二人ともお互いのことをおもっている"
"6157211","structured","15","530040","16000","output","943","1．ある日、人間がペットショップを覗いていると、ふと一つの水槽が目に入った。人間は一目見て魚に恋に落ちた。店員に自分が恋をしたことを伝えると、「頭がおかしいのか？」と嘲笑されてしまう。それでも、自分の恋心に正直になりたいと願った人間は、魚を購入しようとする。しかし、不審に思った店員に購入を断られてしまう。「そんなに買いたかったら10倍の値段でなら売るよ」と言われてしまい、途方に暮れる人間。さらに、人間は自分の部屋では魚を買うことができるスペースがないことを思い出す。それでも魚との恋を成就させたい人間は、ギャンブルでお金を増やそうと試みる。突発的な考えだったが、見事ギャンブルは成功し、手元の資金が100倍になった。魚の購入資金ができた主人公は、まず、不動産に行って今よりも大きい部屋を借りることにした。魚と愛し合える十分なスペースの部屋を借りたあと、恋が始まったペットショップに行くことにした。意気揚々とお店のドアを開けると、そこには人間が恋した魚が、今にも買われてしまいそうな場面に遭遇してしま"
"4408530","structured","18","657833","19000","output","4415","5歳から柔道をはじめた健は、オリンピックを目指して毎日柔道に励んでいます。15歳になる頃、健は親に柔道の名門高校に進学したいとお願いします。そして、そこで柔道を始めますが、そこでは先輩からのいじめやシゴキが半端ではなく、限りなく地獄のような日々でした。しかし、健は挫けず頑張りぬきました。そして、高校3年の県大会の個人戦では見事優勝に輝き全国大会に出場しましたが、結果はベスト８でした。この時、健は自分の努力が報われた気持ちになりました。その後、大学は上記の成績により推薦で進むことになりました。そこではそれほど良い成績は残せませんでしたが"
"4818552","structured","15","543487","30000","output","1221","少女は少し変わった性格をしていた。そのため、学校ではいつも一人だった。
そんな折、一人の生徒を殴ってしまい、その生徒の親御さんから訴えられてしまった。
訴えられて裁判沙汰になり、転校を余儀なくされた。
転校先の学校ではすでに少女のことが噂されており、好奇と蔑まれた視線に晒されていた。
そんな折、一人の女子生徒が階段から落ちて亡くなった。始めは事故だと思われたが、運悪く少女がそこを通りかかったことで犯人扱いされてしまう。
前歴のこともあり疑われるが、少女は身の潔白を証明させるために、聞き込みを始める。始めは協力を断っていた同級生たちも彼女の本意気な態度に、徐々に心を開き始めてともに解決しようと協力します。
すると、亡くなった女子生徒には悪い噂がついており、なんと一人の男子教諭と付き合っているという"
"276409","structured","19","748528","42000","output","2152","ある日目の前に先祖の幽霊が現れて自分の行いがあまりにも人の道から外れているので呪いをかけて5時間以内に改心しなければあの世に連れて行ってやると脅された。解決する方法は2人の他人から感謝されるようなことをしなければならないと言われた。仕方がないので困っている人を探して救ううしかないと辺りを見回したけどそんな人はいなかった。どうしようかと立ち尽くしていたら突然激しい雨が降ってきたのでこれだと思いコンビニに行って傘を2本買い、誰か困っていないか探したらほとんどの人が傘を持っていなかったので近くにいた人に半ば強引に差し上げますと言って傘を手渡してやった。そうしたら霊がやって来てそｎ"
"5231896","structured","18","656624","21000","revision","1938","生まれからずっとともに携わってい来たこの森を少しでも元気にするために、どうしても動きたくなった少年が、何かやり方がないのか、必死に考えていた。途方に暮れていたが、少女に出会った。その少女も同じ考えで、一緒に行動する事になった。その少女は助けられるアイテムを知っているという事で、一緒に探しに行きました。すぐに見つける事が出来ましたが、見つかった途端に、そのアイテムの権利のケンカに発展してしまいました。一緒に解決するつもりだったのに、けんかになってしまって、居心地の悪い感じになりました。二人でもめている最中に、キラッそのアイテムが光り始めて、一筋の光の筋が伸びていきました。驚いて顔を見合わせていると、その光の先に行きたくなって、背中を押されるように、二人で見に行くと、さっきまでの森ではなくなって、昔の一番元気があった頃の森になっていて、二人ともとても喜びました。ケンカも気付いたら辞めていて、それからずっと二人とも仲良く森ｄきました。"
"5860381","structured","10","408161","36000","other","835","馬券を購入した。事前にしっかりと予想をしたのでかなり自信がありとても楽しみだ。自分が購入した馬券を見てみると、予想した馬とは別な馬を購入していたことに気づいた。間違って購入してしまったのだ。絶望感に苛まれながら諦めモードでレースを見ていたら、なんと間違って購入した馬券が的中していた。"
"4858226","structured","19","652148","23000","planning","793","ある日、突然ある国から伝染病が起き始める。
過去にない症状なので初めのころはパニック状態が続いた。
いろんな国の学者や医者がこの病原菌について調べ始めたが、なかなかいい答えが見つからなかった。
この病原菌のもっとも近くにいたのはその学者たちであったので、だんだんと学者たちにも感染者が増えていくことになる。
一番研究をしている人々が解決策を調べないといけないのだが、自らが感染してしまっているので、解決策はなかなかみつからず、難航していた。
しばらくその流れが続いたころ、急速に感染者が増えていたのが和らぎ始めた。
なぜかはわからないが、以前よりも感染が減ってきているような感じがする。
そのころ、警察からある情報が入り始める。
どうやら感染源はある組織が作り出したもので、国をパニックにするために作り出したようだという。
結果その組織はその情報通りであって、警察に捕まり、この騒動は"
"1069349","structured","4","223023","24000","output","1770","「ココ」という宛先から私のスマホにメールが来た。
バグっているのか、メールの時間設定がおかしい。
少し怖いが、好奇心に勝てずメールを開くことにした。
「父さん、8月のお盆に実家に帰ります。心配しなくてもこちらは大丈夫。だいがくでもうまくｙは」"
"163607","structured","14","539213","38000","output","1371","　朝、毎日欠かさない庭に植えた植物の水やりをしながら庭の隅に目をやると、植えた覚えのない植物が芽を出している。
何処からか飛んできた種が芽吹いたのか小さな芽が可愛らしく、他の植物同様に水を掛けてやる。
　日に日に成長していく名も知らぬ植物は1週間もすると大きさが30?にもなり、艶やかな緑の葉を付け立派に育っている様子に嬉しくなる。ある朝、名も知らぬ花に水をやりながら見てみると小さなつぼみが付いている。どんな花を咲かせてくれるのか楽しみになり開花が待ち遠しいと思えた。
　食朝、名も知らぬ植物を見てみるとつぼみの周りに無数の小さな虫が付いているのが見えた。あまりの数に驚きながら"
"2349425","structured","8","295222","35000","planning","963","Aは都内の学校に通う男子高生だ。
ある朝、Aは鏡を見た自分の姿に驚いた。
なんと自分の姿が女性になっていた。
驚きつつも部屋から出て家族の様子を確認すると、家族の性別も変わっていた。
家族はAの姿を見ても驚きもせず、当たり前のように接してきた。
Aは動揺しつつも、いつもどおりの生活をしておこうと思い、学校へ向かった。
学校でもクラスメイトの性別は変転しており、誰もおかしいと感じていないようだった。
友人たちと普通に話していると、"
"6492409","structured","15","479347","19000","planning","1034","ある国に姉のアサと妹のエマという王族の姉妹がいた。両親は死亡しており、姉が王女になる戴冠式を迎えようとしていた。だが、アサには炎を操る魔法の能力があり、そのことを隠して生きてきた。戴冠式当日になり、アサの魔法が誤って発揮されてしまった。それでエマはやけどしてしまい、アサは怖くなり、逃亡してしまった。エマはなぜアサがいなくなってしまったのか分からず、必死で追いかけた。エマを傷つけたくないアサは慌ててるあまり、魔法を何度も使ってしまい町中を焼いてしまう。それでも、エマはアサのために多くの人の協力のもと、アサのもとに追いつく。二人は話し合い、たくさんけんかにたが、やがて、二人ともお互いのことを想っていることに気づき、和解する。"
"114735","structured","3","144434","30000","planning","1389","アメリカ軍に入隊したばかりの二等兵クリス。ある日、彼は重要な任務をアメリカ大統領から命じられることになる。どうして二等兵の彼に重要な任務を与えられたのか。それは実は彼がサイボーグだったらである。"
"4409144","structured","13","422354","23000","revision","1361","勉強が苦手な小学三年生のまみはどうしたらテストで良い点が取れるか悩んでいた。学校の帰り道に「勉強ができる鉛筆」と書かれた鉛筆を拾う。その鉛筆は握っていると笑い声が聞こえてきたり、泣き声が聞こえたりする不思議な鉛筆だった。
まみはその鉛筆を使って学校の予習や復習をなんとか毎日取り組むようにする。鉛筆から聞こえる笑い声や鳴き声に邪魔されながらも、自宅ではその鉛筆を使って学習する。学校では先生や友達に勉強の分からない箇所を聞いたりして、以前よりも真面目に取り組むようになる。
その結果、いつの間にか勉強が自然と分かるようになり、「勉強ができる鉛筆」を使わなくても自分自身の力でテストで良い点が取れるくらい勉強ができるようになっていた。そんな時に「勉強ができる鉛筆」を"
"679574","structured","4","196279","26000","revision","2078","のび太はいつものように、ジャイアンにいじめられた。今回の原因は、野球の試合でのび太が三振ばかりし、打てなかったことだ。
そのため、のび太はジャイアンを見返そうと、ドラえもんにお願いをし、何か良い道具がないか聞いた。

すると、ドラえもんは「打てるー！」という道具をのび太のために出した。これを使えば、誰もが簡単にホームランを打てるという魅力的なものだった。のび太は早速「打てるー！」を使った。

すると、これまでｎ"
"6157211","structured","16","555502","22000","output","882","1．ある日、人間がペットショップを覗いていると、ふと一つの水槽が目に入った。人間は一目見て魚に恋に落ちた。店員に自分が恋をしたことを伝えると、「頭がおかしいのか？」と嘲笑されてしまう。それでも、自分の恋心に正直になりたいと願った人間は、魚を購入しようとする。しかし、不審に思った店員に購入を断られてしまう。「そんなに買いたかったら10倍の値段でなら売るよ」と言われてしまい、途方に暮れる人間。さらに、人間は自分の部屋では魚を買うことができるスペースがないことを思い出す。それでも魚との恋を成就させたい人間は、ギャンブルでお金を増やそうと試みる。突発的な考えだったが、見事ギャンブルは成功し、手元の資金が100倍になった。魚の購入資金ができた主人公は、まず、不動産に行って今よりも大きい部屋を借りることにした。魚と愛し合える十分なスペースの部屋を借りたあと、恋が始まったペットショップに行くことにした。意気揚々とお店のドアを開けると、そこには人間が恋した魚が、今にも買われてしまいそうな場面に遭遇してしまった。焦った人間は、店員と客に詰め寄り、自分が先に買おうとしたｎ"
"5138531","structured","14","465828","41000","planning","917","小さな町の片隅に魚屋があり、老夫婦がその魚屋で勤めていた。その町には猫がたくさん住んでいて、その中に立派な猫のリーダーである、タマキングと呼ばれる猫がいた。魚屋の店主は本来は捨てるはずの魚の端切れを毎日猫たちにあげていた。
ある時、その魚屋でお店の魚が全て盗まれるという事件が起こった。魚が盗まれて困るのは老夫婦だけではなく、猫たちも同じだった。魚が無くなってしまうと猫たちが食べるものも無くなってしまう。そこで、タマキングを中心として猫たちは盗まれた魚を探すことを決意する。するとネズミたちのアジトを見つけ、そこに大量の魚があった。魚を盗んだのはネズミたちだった。そのネズミたちは盗んだ魚を売って自分たちのアジトを大きくするための資金を集めていたのだった。"
"163607","structured","15","558503","16000","revision","1631","　朝、毎日欠かさない庭に植えた植物の水やりをしながら庭の隅に目をやると、植えた覚えのない植物が芽を出している。
何処からか飛んできた種が芽吹いたのか小さな芽が可愛らしく、他の植物同様に水を掛けてやる。
　日に日に成長していく名も知らぬ植物は1週間もすると大きさが30?にもなり、艶やかな緑の葉を付け立派に育っている様子に嬉しくなる。ある朝、名も知らぬ花に水をやりながら見てみると小さなつぼみが付いている。どんな花を咲かせてくれるのか楽しみになり開花が待ち遠しいと思えた。
　食朝、名も知らぬ植物を見てみるとつぼみの周りに無数の小さな虫が付いているのが見えた。あまりの虫の数に驚きながら、じぶんで"
"4277165","structured","10","385160","38000","planning","2207","主人公のたかしはごく普通の男性で家族は妻と子の3人暮らしていたある日
家族旅行の途中で事故に合ってしまう目が覚めるとそこは昔住んでいた大学時代の部屋だったふとテレビに目をやるとそこには昔好きだったテレビの生放送をやっていた"
"4858226","structured","20","676620","21000","revision","1669","ある日、突然ある国から伝染病が起き始める。
過去にない症状なので初めのころはパニック状態が続いた。
いろんな国の学者や医者がこの病原菌について調べ始めたが、なかなかいい答えが見つからなかった。
この病原菌のもっとも近くにいたのはその学者たちであったので、だんだんと学者たちにも感染者が増えていくことになる。
一番研究をしている人々が解決策を調べないといけないのだが、自らが感染してしまっているので、解決策はなかなかみつからず、難航していた。
しばらくその流れが続いたころ、急速に感染者が増えていたのが和らぎ始めた。
なぜかはわからないが、以前よりも感染が減ってきているような感じがする。
どうやらこの
そのころ、警察からある情報が入り始める。
どうやら感染源はある組織が作り出したもので、国をパニックにするために作り出したようだという。
結果その組織はその情報通りであって、警察に捕まり、この騒動はゆっくりと収まったのである。"
"4408530","structured","19","693907","30000","output","4155","5歳から柔道をはじめた健は、オリンピックを目指して毎日柔道に励んでいます。15歳になる頃、健は親に柔道の名門高校に進学したいとお願いします。そして、そこで柔道を始めますが、そこでは先輩からのいじめやシゴキが半端ではなく、限りなく地獄のような日々でした。しかし、健は挫けず頑張りぬきました。そして、高校3年の県大会の個人戦では見事優勝に輝き全国大会に出場しましたが、結果はベスト８でした。この時、健は自分の努力が報われた気持ちになりました。その後、大学は上記の成績により推薦で進むことになりました。そこではそれほど良い成績は残せませんでしたが、卒業後は、健の母校である高校の"
"276409","structured","20","782320","29000","output","3479","ある日目の前に先祖の幽霊が現れて自分の行いがあまりにも人の道から外れているので呪いをかけて5時間以内に改心しなければあの世に連れて行ってやると脅された。解決する方法は2人の他人から感謝されるようなことをしなければならないと言われた。仕方がないので困っている人を探して救ううしかないと辺りを見回したけどそんな人はいなかった。どうしようかと立ち尽くしていたら突然激しい雨が降ってきたのでこれだと思いコンビニに行って傘を2本買い、誰か困っていないか探したらほとんどの人が傘を持っていなかったので近くにいた人に半ば強引に差し上げますと言って傘を手渡してやった。そうしたら霊がやって来てそんなことで改心したことになるかと心底あきれたひょうじょう"
"4441706","structured","16","593326","41000","planning","4002","田中太郎は、子供のころから野球を見ることが好きであった。彼はもともとテレビで野球を見ているだけであったが、次第に自分でも野球がしたいと思うようになった。そのことを太郎は両親に相談したところ、地元で活動しているリトルリーグのチームを教えてもらった。太郎は興味があったので、このチームに入って野球を始めることにした。
太郎は野球をすることが初めてあったので、チームに入った当初は、なかなかチームの練習についていくことができなかった。太郎はチームの中で一番下手な選手であったため、試合に出ることもできなかった。
太郎はベンチから試合を見ながら、いつの日か自分も試合に出たいと考えていた。そのために太郎はずっと真面目に練習を続けていたが、どれだけ真面目に練習をしても、太郎は試合に出ることができなかった。
太郎は次第に、練習をするのが辛くなってきた。いくら練習をしても試合に出られないので、チームをやめたくなった。そのことを太郎は、監督に相談したところ、監督は"
"679574","structured","5","217279","17000","output","2343","のび太はいつものように、ジャイアンにいじめられた。今回の原因は、野球の試合でのび太が三振ばかりし、打てなかったことだ。
そのため、のび太はジャイアンを見返そうと、ドラえもんにお願いをし、何か良い道具がないか聞いた。

すると、ドラえもんは「打てるー！」という道具をのび太のために出した。これを使えば、誰もが簡単にホームランを打てるという魅力的なものだった。のび太は早速「打てるー！」を使った。

すると、これまでの彼からは想像できないほど、簡単にほ"
"5860381","structured","11","448109","37000","other","982","馬券を購入した。事前にしっかりと予想をしたのでかなり自信がありとても楽しみだ。自分が購入した馬券を見てみると、予想した馬とは別な馬を購入していたことに気づいた。間違って購入してしまったのだ。絶望感に苛まれながら諦めモードでレースを見ていたら、なんと間違って購入した馬券が的中していた。"
"4818552","structured","16","589591","43000","output","1886","少女は少し変わった性格をしていた。そのため、学校ではいつも一人だった。
そんな折、一人の生徒を殴ってしまい、その生徒の親御さんから訴えられてしまった。
訴えられて裁判沙汰になり、転校を余儀なくされた。
転校先の学校ではすでに少女のことが噂されており、好奇と蔑まれた視線に晒されていた。
そんな折、一人の女子生徒が階段から落ちて亡くなった。始めは事故だと思われたが、運悪く少女がそこを通りかかったことで犯人扱いされてしまう。
前歴のこともあり疑われるが、少女は身の潔白を証明させるために、聞き込みを始める。始めは協力を断っていた同級生たちも彼女の本意気な態度に、徐々に心を開き始めてともに解決しようと協力します。
すると、亡くなった女子生徒には悪い噂がついており、なんと一人の男子教諭と付き合っているという真実を突き止めた。
少女はその男子教諭をスタンガンで拉致し、拷問して真実を突き詰めようとする。"
"1069349","structured","5","265722","39000","planning","1252","「ココ」という宛先から私のスマホにメールが来た。
バグっているのか、メールの時間設定がおかしい。
少し怖いが、好奇心に勝てずメールを開くことにした。
「父さん、8月のお盆に実家に帰ります。心配しなくてもこちらは大丈夫。大学でも上手くやっています。」
さすがにこのメールを"
"6492409","structured","16","515319","32000","output","2008","ある国に姉のアサと妹のエマという王族の姉妹がいた。両親は死亡しており、姉が王女になる戴冠式を迎えようとしていた。だが、アサには炎を操る魔法の能力があり、そのことを隠して生きてきた。戴冠式当日になり、アサの魔法が誤って発揮されてしまった。それでエマはやけどしてしまい、アサは怖くなり、逃亡してしまった。エマはなぜアサがいなくなってしまったのか分からず、必死で追いかけた。エマを傷つけたくないアサは慌ててるあまり、魔法を何度も使ってしまい町中を焼いてしまう。それでも、エマはアサのために多くの人の協力のもと、アサのもとに追いつく。二人は話し合い、たくさんけんかにたが、やがて、二人ともお互いのことを想っていることに気づき、和解する。このような苦難を乗り越え帰国し、うまく能力を付き合いながらいきて"
"5231896","structured","19","705072","45000","planning","2136","生まれからずっとともに携わってい来たこの森を少しでも元気にするために、どうしても動きたくなった少年が、何かやり方がないのか、必死に考えていた。途方に暮れていたが、少女に出会った。その少女も同じ考えで、一緒に行動する事になった。その少女は助けられるアイテムを知っているという事で、一緒に探しに行きました。すぐに見つける事が出来ましたが、見つかった途端に、そのアイテムの権利のケンカに発展してしまいました。一緒に解決するつもりだったのに、けんかになってしまって、居心地の悪い感じになりました。二人でもめている最中に、キラッそのアイテムが光り始めて、一筋の光の筋が伸びていきました。驚いて顔を見合わせていると、その光の先に行きたくなって、背中を押されるように、二人で見に行くと、さっきまでの森ではなくなって、昔の一番元気があった頃の森になっていて、二人ともとても喜びました。ケンカも気付いたら辞めていて、それからずっと二人とも仲良く森で過ごすことになりました。"
"5138531","structured","15","498180","30000","output","919","小さな町の片隅に魚屋があり、老夫婦がその魚屋で勤めていた。その町には猫がたくさん住んでいて、その中に立派な猫のリーダーである、タマキングと呼ばれる猫がいた。魚屋の店主は本来は捨てるはずの魚の端切れを毎日猫たちにあげていた。
ある時、その魚屋でお店の魚が全て盗まれるという事件が起こった。魚が盗まれて困るのは老夫婦だけではなく、猫たちも同じだった。魚が無くなってしまうと猫たちが食べるものも無くなってしまう。そこで、タマキングを中心として猫たちは盗まれた魚を探すことを決意する。するとネズミたちのアジトを見つけ、そこに大量の魚があった。魚を盗んだのはネズミたちだった。そのネズミたちは盗んだ魚を売って自分たちのアジトを大きくするための資金を集めていたのだった。
何度も抵抗されながらタマキングはネズミたちをたいじすること"
"114735","structured","4","186382","37000","planning","1324","アメリカ軍に入隊したばかりの二等兵クリス。ある日、彼は重要な任務をアメリカ大統領から命じられることになる。どうして二等兵の彼に重要な任務を与えられたのか。それは実は彼がアメリカ軍が密かに開発したサイボーグだったらである。見た目は人と変わらないが全身がき"
"163607","structured","16","592707","31000","planning","2174","　朝、毎日欠かさない庭に植えた植物の水やりをしながら庭の隅に目をやると、植えた覚えのない植物が芽を出している。
何処からか飛んできた種が芽吹いたのか小さな芽が可愛らしく、他の植物同様に水を掛けてやる。
　日に日に成長していく名も知らぬ植物は1週間もすると大きさが30?にもなり、艶やかな緑の葉を付け立派に育っている様子に嬉しくなる。ある朝、名も知らぬ花に水をやりながら見てみると小さなつぼみが付いている。どんな花を咲かせてくれるのか楽しみになり開花が待ち遠しいと思えた。
　食朝、名も知らぬ植物を見てみるとつぼみの周りに無数の小さな虫が付いているのが見えた。あまりの虫の数に驚きながら、自分で虫を取る事が出来ない名も知らぬ植物に代わり、私が"
"2349425","structured","9","341226","43000","planning","1170","Aは都内の学校に通う男子高生だ。
ある朝、Aは鏡を見た自分の姿に驚いた。
なんと自分の姿が女性になっていた。
驚きつつも部屋から出て家族の様子を確認すると、家族の性別も変わっていた。
家族はAの姿を見ても驚きもせず、当たり前のように接してきた。
Aは動揺しつつも、いつもどおりの生活をしておこうと思い、学校へ向かった。
学校でもクラスメイトの性別は変転しており、誰もおかしいと感じていないようだった。
友人たちと話していると、性格は変わっていないようだが、なにか話が噛み合わない部分があった。
"
"4409144","structured","14","467702","42000","revision","1560","勉強が苦手な小学三年生のまみは、どうしたらテストで良い点が取れるか悩んでいた。学校の帰り道に「勉強ができる鉛筆」と書かれた鉛筆を拾う。その鉛筆は握っていると笑い声が聞こえてきたり、泣き声が聞こえたりする不思議な鉛筆だった。
まみはその鉛筆を使って学校の予習や復習をなんとか毎日取り組むようにする。鉛筆から聞こえる笑い声や鳴き声に邪魔されながらも、自宅ではその鉛筆を使って学習する。学校では先生や友達に勉強の分からない箇所を聞いたりして、以前よりも真面目に取り組むようになる。
その結果、いつの間にか勉強が自然と分かるようになり、「勉強ができる鉛筆」を使わなくても自分自身の力でテストで良い点が取れるくらい勉強ができるようになっていた。そんな時に「勉強ができる鉛筆」を握ってみると、もう笑い声も泣き声も聞こえなくなっていた。"
"4858226","structured","21","712024","32000","revision","922","ある日、突然ある国から伝染病が起き始める。
過去にない症状なので初めのころはパニック状態が続いた。
いろんな国の学者や医者がこの病原菌について調べ始めたが、なかなかいい答えが見つからなかった。
この病原菌のもっとも近くにいたのはその学者たちであったので、だんだんと学者たちにも感染者が増えていくことになる。
一番研究をしている人々が解決策を調べないといけないのだが、自らが感染してしまっているので、解決策はなかなかみつからず、難航していた。
しばらくその流れが続いたころ、急速に感染者が増えていたのが和らぎ始めた。
なぜかはわからないが、以前よりも感染が減ってきているような感じがする。
どうやらこの菌は３か月ほどで自然に消滅するものだとはんま
そのころ、警察からある情報が入り始める。
どうやら感染源はある組織が作り出したもので、国をパニックにするために作り出したようだという。
結果その組織はその情報通りであって、警察に捕まり、この騒動はゆっくりと収まったのである。"
"6157211","structured","17","602749","44000","output","986","1．ある日、人間がペットショップを覗いていると、ふと一つの水槽が目に入った。人間は一目見て魚に恋に落ちた。店員に自分が恋をしたことを伝えると、「頭がおかしいのか？」と嘲笑されてしまう。それでも、自分の恋心に正直になりたいと願った人間は、魚を購入しようとする。しかし、不審に思った店員に購入を断られてしまう。「そんなに買いたかったら10倍の値段でなら売るよ」と言われてしまい、途方に暮れる人間。さらに、人間は自分の部屋では魚を買うことができるスペースがないことを思い出す。それでも魚との恋を成就させたい人間は、ギャンブルでお金を増やそうと試みる。突発的な考えだったが、見事ギャンブルは成功し、手元の資金が100倍になった。魚の購入資金ができた主人公は、まず、不動産に行って今よりも大きい部屋を借りることにした。魚と愛し合える十分なスペースの部屋を借りたあと、恋が始まったペットショップに行くことにした。意気揚々とお店のドアを開けると、そこには人間が恋した魚が、今にも買われてしまいそうな場面に遭遇してしまった。焦った人間は、店員と客に詰め寄り「自分が先に買おうとしたんだ！」と大声で叫ぶ。驚いた店員と客は、互いに顔を見合わせ、苦笑する"
"679574","structured","6","244111","23000","output","2641","のび太はいつものように、ジャイアンにいじめられた。今回の原因は、野球の試合でのび太が三振ばかりし、打てなかったことだ。
そのため、のび太はジャイアンを見返そうと、ドラえもんにお願いをし、何か良い道具がないか聞いた。

すると、ドラえもんは「打てるー！」という道具をのび太のために出した。これを使えば、誰もが簡単にホームランを打てるという魅力的なものだった。のび太は早速「打てるー！」を使った。

すると、これまでの彼からは想像できないほど、簡単にホームランを打てるようになったのだ。4打席連続ホームランを打ち"
"4277165","structured","11","429600","41000","planning","1968","主人公のたかしはごく普通の男性で家族は妻と子の3人暮らしていたある日
家族旅行の途中で事故に合ってしまう目が覚めるとそこは昔住んでいた大学時代の部屋だったふとテレビに目をやるとそこには昔好きだったテレビの生放送をやっていた。混乱しながらも状況を理解しようとする"
"6492409","structured","17","535559","17000","output","1128","ある国に姉のアサと妹のエマという王族の姉妹がいた。両親は死亡しており、姉が王女になる戴冠式を迎えようとしていた。だが、アサには炎を操る魔法の能力があり、関h上の高ぶりそのことを隠して生きてきた。戴冠式当日になり、アサの魔法が誤って発揮されてしまった。それでエマはやけどしてしまい、アサは怖くなり、逃亡してしまった。エマはなぜアサがいなくなってしまったのか分からず、必死で追いかけた。エマを傷つけたくないアサは慌ててるあまり、魔法を何度も使ってしまい町中を焼いてしまう。それでも、エマはアサのために多くの人の協力のもと、アサのもとに追いつく。二人は話し合い、たくさんけんかにたが、やがて、二人ともお互いのことを想っていることに気づき、和解する。このような苦難を乗り越え帰国し、うまく能力を付き合いながら生きていくことを決心した。"
"4441706","structured","17","631846","31000","output","1918","田中太郎は、子供のころから野球を見ることが好きであった。彼はもともとテレビで野球を見ているだけであったが、次第に自分でも野球がしたいと思うようになった。そのことを太郎は両親に相談したところ、地元で活動しているリトルリーグのチームを教えてもらった。太郎は興味があったので、このチームに入って野球を始めることにした。
太郎は野球をすることが初めてあったので、チームに入った当初は、なかなかチームの練習についていくことができなかった。太郎はチームの中で一番下手な選手であったため、試合に出ることもできなかった。
太郎はベンチから試合を見ながら、いつの日か自分も試合に出たいと考えていた。そのために太郎はずっと真面目に練習を続けていたが、どれだけ真面目に練習をしても、太郎は試合に出ることができなかった。
太郎は次第に、練習をするのが辛くなってきた。いくら練習をしても試合に出られないので、チームをやめたくなった。そのことを太郎は、監督に相談したところ、監督はあきらめずに練習を続けろと、太郎にしじ"
"276409","structured","21","828015","41000","planning","3367","ある日目の前に先祖の幽霊が現れて自分の行いがあまりにも人の道から外れているので呪いをかけて5時間以内に改心しなければあの世に連れて行ってやると脅された。解決する方法は2人の他人から感謝されるようなことをしなければならないと言われた。仕方がないので困っている人を探して救ううしかないと辺りを見回したけどそんな人はいなかった。どうしようかと立ち尽くしていたら突然激しい雨が降ってきたのでこれだと思いコンビニに行って傘を2本買い、誰か困っていないか探したらほとんどの人が傘を持っていなかったので近くにいた人に半ば強引に差し上げますと言って傘を手渡してやった。そうしたら霊がやって来てそんなことで改心したことになるかと心底あきれた表情だったけど自分の程度を分かっていたのかため息なじりに"
"4818552","structured","17","623264","31000","output","1059","少女は少し変わった性格をしていた。そのため、学校ではいつも一人だった。
そんな折、一人の生徒を殴ってしまい、その生徒の親御さんから訴えられてしまった。
訴えられて裁判沙汰になり、転校を余儀なくされた。
転校先の学校ではすでに少女のことが噂されており、好奇と蔑まれた視線に晒されていた。
そんな折、一人の女子生徒が階段から落ちて亡くなった。始めは事故だと思われたが、運悪く少女がそこを通りかかったことで犯人扱いされてしまう。
前歴のこともあり疑われるが、少女は身の潔白を証明させるために、聞き込みを始める。始めは協力を断っていた同級生たちも彼女の本意気な態度に、徐々に心を開き始めてともに解決しようと協力します。
すると、亡くなった女子生徒には悪い噂がついており、なんと一人の男子教諭と付き合っているという真実を突き止めた。
少女はその男子教諭をスタンガンで拉致し、拷問して真実を突き詰めようとする。
恐怖に慄く男子教諭は真実を話し、女子生徒を階段からつきおとして"
"4408530","structured","20","745753","43000","output","3439","5歳から柔道をはじめた健は、オリンピックを目指して毎日柔道に励んでいます。15歳になる頃、健は親に柔道の名門高校に進学したいとお願いします。そして、そこで柔道を始めますが、そこでは先輩からのいじめやシゴキが半端ではなく、限りなく地獄のような日々でした。しかし、健は挫けず頑張りぬきました。そして、高校3年の県大会の個人戦では見事優勝に輝き全国大会に出場しましたが、結果はベスト８でした。この時、健は自分の努力が報われた気持ちになりました。その後、大学は上記の成績により推薦で進むことになりました。そこではそれほど良い成績は残せませんでしたが、卒業後は、健の母校である高校のコーチとして入ることが出来ました。その後の健は、"
"5138531","structured","16","535435","35000","planning","982","小さな町の片隅に魚屋があり、老夫婦がその魚屋で勤めていた。その町には猫がたくさん住んでいて、その中に立派な猫のリーダーである、タマキングと呼ばれる猫がいた。魚屋の店主は本来は捨てるはずの魚の端切れを毎日猫たちにあげていた。
ある時、その魚屋でお店の魚が全て盗まれるという事件が起こった。魚が盗まれて困るのは老夫婦だけではなく、猫たちも同じだった。魚が無くなってしまうと猫たちが食べるものも無くなってしまう。そこで、タマキングを中心として猫たちは盗まれた魚を探すことを決意する。するとネズミたちのアジトを見つけ、そこに大量の魚があった。魚を盗んだのはネズミたちだった。そのネズミたちは盗んだ魚を売って自分たちのアジトを大きくするための資金を集めていたのだった。
何度も抵抗されながらタマキングはネズミたちを退治することに成功し、見事に魚を全て取り戻したのだった。タマキングは"
"114735","structured","5","223298","33000","planning","1840","アメリカ軍に入隊したばかりの二等兵クリス。ある日、彼は重要な任務をアメリカ大統領から命じられることになる。どうして二等兵の彼に重要な任務を与えられたのか。それは実は彼がアメリカ軍が密かに開発したサイボーグだったらである。見た目は人と変わらないが全身は金属や強化プラスチック、人工皮膚で構成されており、人とは全く違ってい"
"4277165","structured","12","453295","21000","planning","1287","主人公のたかしはごく普通の男性で家族は妻と子の3人暮らしていたある日
家族旅行の途中で事故に合ってしまう目が覚めるとそこは昔住んでいた大学時代の部屋だったふとテレビに目をやるとそこには昔好きだったテレビの生放送をやっていた。混乱しながらも状況を理解しようとする"
"6157211","structured","18","630888","25000","output","904","1．ある日、人間がペットショップを覗いていると、ふと一つの水槽が目に入った。人間は一目見て魚に恋に落ちた。店員に自分が恋をしたことを伝えると、「頭がおかしいのか？」と嘲笑されてしまう。それでも、自分の恋心に正直になりたいと願った人間は、魚を購入しようとする。しかし、不審に思った店員に購入を断られてしまう。「そんなに買いたかったら10倍の値段でなら売るよ」と言われてしまい、途方に暮れる人間。さらに、人間は自分の部屋では魚を買うことができるスペースがないことを思い出す。それでも魚との恋を成就させたい人間は、ギャンブルでお金を増やそうと試みる。突発的な考えだったが、見事ギャンブルは成功し、手元の資金が100倍になった。魚の購入資金ができた主人公は、まず、不動産に行って今よりも大きい部屋を借りることにした。魚と愛し合える十分なスペースの部屋を借りたあと、恋が始まったペットショップに行くことにした。意気揚々とお店のドアを開けると、そこには人間が恋した魚が、今にも買われてしまいそうな場面に遭遇してしまった。焦った人間は、店員と客に詰め寄り「自分が先に買おうとしたんだ！」と大声で叫ぶ。驚いた店員と客は、互いに顔を見合わせて苦笑する。「私が買うので諦めてください」、半笑いで人間にｇ"
"1069349","structured","6","314851","45000","revision","1876","「ココ」という宛先から私のスマホにメールが来た。
バグっているのか、メールの時間設定がおかしい。
少し怖いが、好奇心に勝てずメールを開くことにした。
「父さん、8月のお盆に実家に帰ります。心配しなくてもこちらは大丈夫。大学でも上手くやっています。」
さすがにこのメールをそのままスルーするのはよくないと考え、私は送信相手に間違っているえメール"
"2349425","structured","10","382090","38000","output","984","Aは都内の学校に通う男子高生だ。
ある朝、Aは鏡を見た自分の姿に驚いた。
なんと自分の姿が女性になっていた。
驚きつつも部屋から出て家族の様子を確認すると、家族の性別も変わっていた。
家族はAの姿を見ても驚きもせず、当たり前のように接してきた。
Aは動揺しつつも、いつもどおりの生活をしておこうと思い、学校へ向かった。
学校でもクラスメイトの性別は変転しており、誰もおかしいと感じていないようだった。
友人たちと話していると、性格は変わっていないようだが、なにか話が噛み合わない部分やおかしい事があった。
授業中、みんな立って"
"4409144","structured","15","505978","35000","revision","1315","勉強が苦手な小学三年生のまみは、どうしたらテストで良い点が取れるか悩んでいた。ある日、学校の帰り道に「勉強ができる鉛筆」と書かれた鉛筆を拾う。その鉛筆は握っていると笑い声が聞こえてきたり、泣き声が聞こえたりする不思議な鉛筆だった。
まみはその鉛筆を使って学校の予習や復習をなんとか毎日取り組むようにする。鉛筆から聞こえる笑い声や鳴き声に邪魔されながらも、自宅ではその鉛筆を使って学習するようにした。学校では先生や友達に勉強の分からない箇所を聞いたりして、以前よりも真面目に取り組むようになる。
その結果、いつの間にか勉強が自然と分かるようになり、「勉強ができる鉛筆」を使わなくても自分自身の力でテストで良い点が取れるくらい勉強ができるようになっていた。そんな時に「勉強ができる鉛筆」を握ってみると、もう笑い声も泣き声も聞こえなくなっていた。"
"163607","structured","17","635774","40000","planning","1990","　朝、毎日欠かさない庭に植えた植物の水やりをしながら庭の隅に目をやると、植えた覚えのない植物が芽を出している。
何処からか飛んできた種が芽吹いたのか小さな芽が可愛らしく、他の植物同様に水を掛けてやる。
　日に日に成長していく名も知らぬ植物は1週間もすると大きさが30?にもなり、艶やかな緑の葉を付け立派に育っている様子に嬉しくなる。ある朝、名も知らぬ花に水をやりながら見てみると小さなつぼみが付いている。どんな花を咲かせてくれるのか楽しみになり開花が待ち遠しいと思えた。
　食朝、名も知らぬ植物を見てみるとつぼみの周りに無数の小さな虫が付いているのが見えた。あまりの虫の数に驚きながら、自分で虫を取る事が出来ない名も知らぬ植物に代わり、私が虫を取り除く事にした。
　虫はじっとしているが気持ちのいい"
"4441706","structured","18","658638","23000","output","2172","田中太郎は、子供のころから野球を見ることが好きであった。彼はもともとテレビで野球を見ているだけであったが、次第に自分でも野球がしたいと思うようになった。そのことを太郎は両親に相談したところ、地元で活動しているリトルリーグのチームを教えてもらった。太郎は興味があったので、このチームに入って野球を始めることにした。
太郎は野球をすることが初めてあったので、チームに入った当初は、なかなかチームの練習についていくことができなかった。太郎はチームの中で一番下手な選手であったため、試合に出ることもできなかった。
太郎はベンチから試合を見ながら、いつの日か自分も試合に出たいと考えていた。そのために太郎はずっと真面目に練習を続けていたが、どれだけ真面目に練習をしても、太郎は試合に出ることができなかった。
太郎は次第に、練習をするのが辛くなってきた。いくら練習をしても試合に出られないので、チームをやめたくなった。そのことを太郎は、監督に相談したところ、監督はあきらめずに練習を続けろと、太郎をはげました。
ある"
"4858226","structured","22","755844","40000","revision","2417","ある日、突然ある国から伝染病が起き始める。
過去にない症状なので初めのころはパニック状態が続いた。
いろんな国の学者や医者がこの病原菌について調べ始めたが、なかなかいい答えが見つからなかった。
この病原菌のもっとも近くにいたのはその学者たちであったので、だんだんと学者たちにも感染者が増えていくことになる。
一番研究をしている人々が解決策を調べないといけないのだが、自らが感染してしまっているので、解決策はなかなかみつからず、難航していた。
しばらくその流れが続いたころ、急速に感染者が増えていたのが和らぎ始めた。
なぜかはわからないが、以前よりも感染が減ってきているような感じがする。
どうやらこの菌は３か月ほどで自然に消滅するものだと判明する。
そのころ、警察からある情報が入り始める。
どうやら感染源はある組織が作り出したもので、国をパニックにするために作り出したようだという。
結果その組織はその情報通りであって、警察に捕まり、この騒動はゆっくりと収まったのである。"
"679574","structured","7","288697","41000","planning","1749","のび太はいつものように、ジャイアンにいじめられた。今回の原因は、野球の試合でのび太が三振ばかりし、打てなかったことだ。
そのため、のび太はジャイアンを見返そうと、ドラえもんにお願いをし、何か良い道具がないか聞いた。

すると、ドラえもんは「打てるー！」という道具をのび太のために出した。これを使えば、誰もが簡単にホームランを打てるという魅力的なものだった。のび太は早速「打てるー！」を使った。

これまでの彼からは想像できないほど、簡単にホームランを打てるようになったのだ。4打席連続ホームランを打ち、周囲を驚かせた。

しかし、あまりにものび太がホームランを打つため、"
"5138531","structured","17","558572","21000","output","774","小さな町の片隅に魚屋があり、老夫婦がその魚屋で勤めていた。その町には猫がたくさん住んでいて、その中に立派な猫のリーダーである、タマキングと呼ばれる猫がいた。魚屋の店主は本来は捨てるはずの魚の端切れを毎日猫たちにあげていた。
ある時、その魚屋でお店の魚が全て盗まれるという事件が起こった。魚が盗まれて困るのは老夫婦だけではなく、猫たちも同じだった。魚が無くなってしまうと猫たちが食べるものも無くなってしまう。そこで、タマキングを中心として猫たちは盗まれた魚を探すことを決意する。するとネズミたちのアジトを見つけ、そこに大量の魚があった。魚を盗んだのはネズミたちだった。そのネズミたちは盗んだ魚を売って自分たちのアジトを大きくするための資金を集めていたのだった。
何度も抵抗されながらタマキングはネズミたちを退治することに成功し、見事に魚を全て取り戻したのだった。タマキングは取り戻した魚を魚屋に戻し、店主の老夫婦から深く感謝されたのだった。"
"4818552","structured","18","659736","34000","output","1063","少女は少し変わった性格をしていた。そのため、学校ではいつも一人だった。
そんな折、一人の生徒を殴ってしまい、その生徒の親御さんから訴えられてしまった。
訴えられて裁判沙汰になり、転校を余儀なくされた。
転校先の学校ではすでに少女のことが噂されており、好奇と蔑まれた視線に晒されていた。
そんな折、一人の女子生徒が階段から落ちて亡くなった。始めは事故だと思われたが、運悪く少女がそこを通りかかったことで犯人扱いされてしまう。
前歴のこともあり疑われるが、少女は身の潔白を証明させるために、聞き込みを始める。始めは協力を断っていた同級生たちも彼女の本意気な態度に、徐々に心を開き始めてともに解決しようと協力します。
すると、亡くなった女子生徒には悪い噂がついており、なんと一人の男子教諭と付き合っているという真実を突き止めた。
少女はその男子教諭をスタンガンで拉致し、拷問して真実を突き詰めようとする。
恐怖に慄く男子教諭は真実を話し、女子生徒を階段から突き落として殺害したことを認めた。
なんでも別れのもつれに寄る"
"6492409","structured","18","580913","42000","planning","1146","ある国に姉のアサと妹のエマという王族の姉妹がいた。両親は死亡しており、姉が王女になる戴冠式を迎えようとしていた。だが、アサには炎を操る魔法の能力があり、関h上の高ぶりが悪化させるものであった。しかし、そのことを隠して生きてきた。戴冠式当日になり、緊張したアサは魔法が誤って発揮されてしまった。それでエマはやけどしてしまい、アサは怖くなり、逃亡してしまった。エマはなぜアサがいなくなってしまったのか分からず、必死で追いかけた。エマを傷つけたくないアサは慌ててるあまり、魔法を何度も使ってしまい町中を焼いてしまう。それでも、エマはアサのために多くの人の協力のもと、アサのもとに追いつく。二人は話し合い、たくさんけんかにたが、やがて、二人ともお互いのことを想っていることに気づき、和解する。このような苦難を乗り越え帰国し、うまく能力を付き合いながら生きていくことを決心した。"
"4408530","structured","21","779993","30000","output","2824","5歳から柔道をはじめた健は、オリンピックを目指して毎日柔道に励んでいます。15歳になる頃、健は親に柔道の名門高校に進学したいとお願いします。そして、そこで柔道を始めますが、そこでは先輩からのいじめやシゴキが半端ではなく、限りなく地獄のような日々でした。しかし、健は挫けず頑張りぬきました。そして、高校3年の県大会の個人戦では見事優勝に輝き全国大会に出場しましたが、結果はベスト８でした。この時、健は自分の努力が報われた気持ちになりました。その後、大学は上記の成績により推薦で進むことになりました。そこではそれほど良い成績は残せませんでしたが、卒業後は、健の母校である高校のコーチとして入ることが出来ました。その後の健は、定年になるまで母校と"
"2349425","structured","11","404509","20000","output","661","Aは都内の学校に通う男子高生だ。
ある朝、Aは鏡を見た自分の姿に驚いた。
なんと自分の姿が女性になっていた。
驚きつつも部屋から出て家族の様子を確認すると、家族の性別も変わっていた。
家族はAの姿を見ても驚きもせず、当たり前のように接してきた。
Aは動揺しつつも、いつもどおりの生活をしておこうと思い、学校へ向かった。
学校でもクラスメイトの性別は変転しており、誰もおかしいと感じていないようだった。
友人たちと話していると、性格は変わっていないようだが、なにか話が噛み合わない部分やおかしい事があった。
たとえば授業中、みんな立って授業を受けていたり、教科書を逆さにもって"
"1069349","structured","7","340021","22000","planning","1199","「ココ」という宛先から私のスマホにメールが来た。
バグっているのか、メールの時間設定がおかしい。
少し怖いが、好奇心に勝てずメールを開くことにした。
「父さん、8月のお盆に実家に帰ります。心配しなくてもこちらは大丈夫。大学でも上手くやっています。」
さすがにこのメールをそのままスルーするのはよくないと考え、私は送信相手に間違っているというメールを送ることにしました。
"
"4441706","structured","19","676829","15000","output","1412","田中太郎は、子供のころから野球を見ることが好きであった。彼はもともとテレビで野球を見ているだけであったが、次第に自分でも野球がしたいと思うようになった。そのことを太郎は両親に相談したところ、地元で活動しているリトルリーグのチームを教えてもらった。太郎は興味があったので、このチームに入って野球を始めることにした。
太郎は野球をすることが初めてあったので、チームに入った当初は、なかなかチームの練習についていくことができなかった。太郎はチームの中で一番下手な選手であったため、試合に出ることもできなかった。
太郎はベンチから試合を見ながら、いつの日か自分も試合に出たいと考えていた。そのために太郎はずっと真面目に練習を続けていたが、どれだけ真面目に練習をしても、太郎は試合に出ることができなかった。
太郎は次第に、練習をするのが辛くなってきた。いくら練習をしても試合に出られないので、チームをやめたくなった。そのことを太郎は、監督に相談したところ、監督はあきらめずに練習を続けろと、太郎をはげました。
ある日の試合で、太郎はそのひも"
"276409","structured","22","870711","39000","output","2000","ある日目の前に先祖の幽霊が現れて自分の行いがあまりにも人の道から外れているので呪いをかけて5時間以内に改心しなければあの世に連れて行ってやると脅された。解決する方法は2人の他人から感謝されるようなことをしなければならないと言われた。仕方がないので困っている人を探して救ううしかないと辺りを見回したけどそんな人はいなかった。どうしようかと立ち尽くしていたら突然激しい雨が降ってきたのでこれだと思いコンビニに行って傘を2本買い、誰か困っていないか探したらほとんどの人が傘を持っていなかったので近くにいた人に半ば強引に差し上げますと言って傘を手渡してやった。そうしたら霊がやって来てそんなことで改心したことになるかと心底あきれた表情だったけど自分の程度を分かっていたのかため息なじりに「仕方がない、これくらいで勘弁してやる"
"114735","structured","6","252872","26000","planning","1725","アメリカ軍に入隊したばかりの二等兵クリス。ある日、彼は重要な任務をアメリカ大統領から命じられることになる。どうして二等兵の彼に重要な任務を与えられたのか。それは実は彼がアメリカ軍が密かに開発したサイボーグだったらである。見た目は人と変わらないが全身は金属や強化プラスチック、人工皮膚で構成されており、人とは全く違っている。超人的な能力を有しているが、二等兵を装って陸軍にｎ"
"4858226","structured","23","781074","21000","other","1568","ある日、突然ある国から伝染病が起き始める。
過去にない症状なので初めのころはパニック状態が続いた。
いろんな国の学者や医者がこの病原菌について調べ始めたが、なかなかいい答えが見つからなかった。
この病原菌のもっとも近くにいたのはその学者たちであったので、だんだんと学者たちにも感染者が増えていくことになる。
一番研究をしている人々が解決策を調べないといけないのだが、自らが感染してしまっているので、解決策はなかなかみつからずに難航していた。
しばらくその流れが続いたころ、急速に感染者が増えていたのがなぜか和らぎ始めた。
なぜかはわからないが、以前よりも感染が減ってきているような感じがする。
どうやらこの菌は３か月ほどで自然に消滅するものだと判明する。
そのころ、警察からある情報が入り始める。
どうやら感染源はある組織が作り出したもので、国をパニックにするために作り出したようだという。
結果その組織はその情報通りであって、警察に捕まり、この騒動はゆっくりと収まったのである。"
"6157211","structured","19","670816","36000","revision","1387","1．ある日、人間がペットショップを覗いていると、ふと一つの水槽が目に入った。人間は一目見て魚に恋に落ちた。店員に自分が恋をしたことを伝えると、「頭がおかしいのか？」と嘲笑されてしまう。それでも、自分の恋心に正直になりたいと願った人間は、魚を購入しようとする。しかし、不審に思った店員に購入を断られてしまう。「そんなに買いたかったら10倍の値段でなら売るよ」と言われてしまい、途方に暮れる人間。さらに、人間は自分の部屋では魚を買うことができるスペースがないことを思い出す。それでも魚との恋を成就させたい人間は、ギャンブルでお金を増やそうと試みる。突発的な考えだったが、見事ギャンブルは成功し、手元の資金が100倍になった。魚の購入資金ができた主人公は、まず、不動産に行って今よりも大きい部屋を借りることにした。魚と愛し合える十分なスペースの部屋を借りたあと、恋が始まったペットショップに行くことにした。意気揚々とお店のドアを開けると、そこには人間が恋した魚が、今にも買われてしまいそうな場面に遭遇してしまった。焦った人間は、店員と客に詰め寄り「自分が先に買おうとしたんだ！」と大声で叫ぶ。驚いた店員と客は、互いに顔を見合わせて苦笑する。「私が買うので諦めてください」、半笑いで人間に伝える客。「俺はその魚を10倍、いや"
"4818552","structured","19","682792","19000","output","2621","少女は少し変わった性格をしていた。そのため、学校ではいつも一人だった。
そんな折、一人の生徒を殴ってしまい、その生徒の親御さんから訴えられてしまった。
訴えられて裁判沙汰になり、転校を余儀なくされた。
転校先の学校ではすでに少女のことが噂されており、好奇と蔑まれた視線に晒されていた。
そんな折、一人の女子生徒が階段から落ちて亡くなった。始めは事故だと思われたが、運悪く少女がそこを通りかかったことで犯人扱いされてしまう。
前歴のこともあり疑われるが、少女は身の潔白を証明させるために、聞き込みを始める。始めは協力を断っていた同級生たちも彼女の本意気な態度に、徐々に心を開き始めてともに解決しようと協力します。
すると、亡くなった女子生徒には悪い噂がついており、なんと一人の男子教諭と付き合っているという真実を突き止めた。
少女はその男子教諭をスタンガンで拉致し、拷問して真実を突き詰めようとする。
恐怖に慄く男子教諭は真実を話し、女子生徒を階段から突き落として殺害したことを認めた。
動機は"
"163607","structured","18","674247","36000","planning","1412","　朝、毎日欠かさない庭に植えた植物の水やりをしながら庭の隅に目をやると、植えた覚えのない植物が芽を出している。
何処からか飛んできた種が芽吹いたのか小さな芽が可愛らしく、他の植物同様に水を掛けてやる。
　日に日に成長していく名も知らぬ植物は1週間もすると大きさが30?にもなり、艶やかな緑の葉を付け立派に育っている様子に嬉しくなる。ある朝、名も知らぬ花に水をやりながら見てみると小さなつぼみが付いている。どんな花を咲かせてくれるのか楽しみになり開花が待ち遠しいと思えた。
　食朝、名も知らぬ植物を見てみるとつぼみの周りに無数の小さな虫が付いているのが見えた。あまりの虫の数に驚きながら、自分で虫を取る事が出来ない名も知らぬ植物に代わり、私が虫を取り除く事にした。
　虫はじっとしているが気持ちのいい姿ではなく、恐る恐る手で取ってみる。"
"1069349","structured","8","359819","16000","output","1337","「ココ」という宛先から私のスマホにメールが来た。
バグっているのか、メールの時間設定がおかしい。
少し怖いが、好奇心に勝てずメールを開くことにした。
「父さん、8月のお盆に実家に帰ります。心配しなくてもこちらは大丈夫。大学でも上手くやっています。」
さすがにこのメールをそのままスルーするのはよくないと考え、私は送信相手に間違っているというメールを送ることにしました。
メール送信後、送信相手からお礼のｍ"
"276409","structured","23","889928","15000","output","2663","ある日目の前に先祖の幽霊が現れて自分の行いがあまりにも人の道から外れているので呪いをかけて5時間以内に改心しなければあの世に連れて行ってやると脅された。解決する方法は2人の他人から感謝されるようなことをしなければならないと言われた。仕方がないので困っている人を探して救ううしかないと辺りを見回したけどそんな人はいなかった。どうしようかと立ち尽くしていたら突然激しい雨が降ってきたのでこれだと思いコンビニに行って傘を2本買い、誰か困っていないか探したらほとんどの人が傘を持っていなかったので近くにいた人に半ば強引に差し上げますと言って傘を手渡してやった。そうしたら霊がやって来てそんなことで改心したことになるかと心底あきれた表情だったけど自分の程度を分かっていたのかため息なじりに「仕方がない、どうせ無理だろうからこれくらいで勘弁してやる"
"4409144","structured","16","549354","40000","revision","1626","勉強が苦手な小学三年生のまみは、どうしたらテストで良い点が取れるか悩んでいた。ある日、学校の帰り道に「勉強ができる鉛筆」と書かれた鉛筆を拾う。その鉛筆は握っていると笑い声が聞こえてきたり、泣き声が聞こえたりする不思議な鉛筆だった。
まみはその鉛筆を使って学校の予習や復習をなんとか毎日取り組むようにする。鉛筆から聞こえる笑い声や鳴き声に邪魔されながらも、自宅ではその鉛筆を使って学習するようにした。学校では先生や友達に勉強の分からない箇所を聞いたりして、以前よりも勉強に真面目に取り組むようになる。
その結果、いつの間にか勉強が自然と分かるようになり、「勉強ができる鉛筆」を使わなくても自分自身の力でテストで良い点が取れるくらい勉強ができるようになっていた。そんな時に自宅で「勉強ができる鉛筆」を握ってみると、もう笑い声も泣き声も聞こえなくなっていた。"
"4277165","structured","13","501784","44000","revision","1742","主人公のたかしはごく普通の男性で家族は妻と子の3人暮らしていたある日
家族旅行の途中で事故に合ってしまう目が覚めるとそこは昔住んでいた大学時代の部屋だったふとテレビに目をやるとそこには昔好きだったテレビの生放送をやっていた。タイムリープしていることを気づく"
"2349425","structured","12","432346","25000","output","827","Aは都内の学校に通う男子高生だ。
ある朝、Aは鏡を見た自分の姿に驚いた。
なんと自分の姿が女性になっていた。
驚きつつも部屋から出て家族の様子を確認すると、家族の性別も変わっていた。
家族はAの姿を見ても驚きもせず、当たり前のように接してきた。
Aは動揺しつつも、いつもどおりの生活をしておこうと思い、学校へ向かった。
学校でもクラスメイトの性別は変転しており、誰もおかしいと感じていないようだった。
友人たちと話していると、性格は変わっていないようだが、なにか話が噛み合わない部分やおかしい事があった。
たとえば授業中、みんな立って授業を受けていたり、教科書を逆さに持っていたりと、奇妙におもい"
"679574","structured","8","325585","33000","output","1812","のび太はいつものように、ジャイアンにいじめられた。今回の原因は、野球の試合でのび太が三振ばかりし、打てなかったことだ。
そのため、のび太はジャイアンを見返そうと、ドラえもんにお願いをし、何か良い道具がないか聞いた。

すると、ドラえもんは「打てるー！」という道具をのび太のために出した。これを使えば、誰もが簡単にホームランを打てるという魅力的なものだった。のび太は早速「打てるー！」を使った。

これまでの彼からは想像できないほど、簡単にホームランを打てるようになったのだ。4打席連続ホームランを打ち、周囲を驚かせた。

しかし、あまりにものび太がホームランを打つため、ジャイアンはのび太を怪しんだ。ジャイアンは、のび太を問いただし、「ドラえもんｎ」"
"114735","structured","7","283032","22000","planning","2862","アメリカ軍に入隊したばかりの二等兵クリス。ある日、彼は重要な任務をアメリカ大統領から命じられることになる。どうして二等兵の彼に重要な任務を与えられたのか。それは実は彼がアメリカ軍が密かに開発したサイボーグだったらである。見た目は人と変わらないが全身は金属や強化プラスチック、人工皮膚で構成されており、人とは全く違っている。超人的な能力を有しているが、二等兵を装って陸軍に入隊した。

彼に命じられた任務は"
"4408530","structured","22","819041","35000","output","2474","5歳から柔道をはじめた健は、オリンピックを目指して毎日柔道に励んでいます。15歳になる頃、健は親に柔道の名門高校に進学したいとお願いします。そして、そこで柔道を始めますが、そこでは先輩からのいじめやシゴキが半端ではなく、限りなく地獄のような日々でした。しかし、健は挫けず頑張りぬきました。そして、高校3年の県大会の個人戦では見事優勝に輝き全国大会に出場しましたが、結果はベスト８でした。この時、健は自分の努力が報われた気持ちになりました。その後、大学は上記の成績により推薦で進むことになりました。そこではそれほど良い成績は残せませんでしたが、卒業後は、健の母校である高校のコーチとして入ることが出来ました。その後の健は、定年になるまで母校の柔道部の為に頑張り、数々の選手をそだてｔ"
"5138531","structured","18","602299","41000","planning","950","小さな町の片隅に魚屋があり、老夫婦がその魚屋で勤めていた。その町には猫がたくさん住んでいて、その中に立派な猫のリーダーである、タマキングと呼ばれる猫がいた。魚屋の店主は本来は捨てるはずの魚の端切れを毎日猫たちにあげていた。
ある時、その魚屋でお店の魚が全て盗まれるという事件が起こった。魚が盗まれて困るのは老夫婦だけではなく、猫たちも同じだった。魚が無くなってしまうと猫たちが食べるものも無くなってしまう。そこで、タマキングを中心として猫たちは盗まれた魚を探すことを決意する。するとネズミたちのアジトを見つけ、そこに大量の魚があった。魚を盗んだのはネズミたちだった。そのネズミたちは盗んだ魚を売って自分たちのアジトを大きくするための資金を集めていたのだった。
何度も抵抗されながらタマキングはネズミたちを退治することに成功し、見事に魚を全て取り戻したのだった。タマキングは取り戻した魚を魚屋に戻し、店主の老夫婦から深く感謝されたのだった。さらに、その町の長からも勇者として表彰されたのだった。"
"6492409","structured","19","622671","37000","output","1064","ある国に姉のアサと妹のエマという王族の姉妹がいた。両親は死亡しており、姉が王女になる戴冠式を迎えようとしていた。だが、アサには炎を操る魔法の能力があり、関h上の高ぶりが悪化させるものであった。しかし、そのことを隠して生きてきた。戴冠式当日になり、緊張したアサは魔法が誤って発揮されてしまった。それでエマはやけどしてしまい、アサは怖くなり、逃亡してしまった。エマはなぜアサがいなくなってしまったのか分からず、必死で追いかけた。エマもｋにを傷つけたくないアサは慌ててるあまり、魔法を何度も使ってしまい町中を焼いてしまう。それでも、エマはアサのために多くの人の協力のもと、アサのもとに追いつく。二人は話し合い、たくさんけんかにたが、やがて、二人ともお互いのことを想っていることに気づき、和解する。このような苦難を乗り越え帰国し、うまく能力を付き合いながら生きていくことを決心した。"
"163607","structured","19","695511","18000","output","2135","　朝、毎日欠かさない庭に植えた植物の水やりをしながら庭の隅に目をやると、植えた覚えのない植物が芽を出している。
何処からか飛んできた種が芽吹いたのか小さな芽が可愛らしく、他の植物同様に水を掛けてやる。
　日に日に成長していく名も知らぬ植物は1週間もすると大きさが30?にもなり、艶やかな緑の葉を付け立派に育っている様子に嬉しくなる。ある朝、名も知らぬ花に水をやりながら見てみると小さなつぼみが付いている。どんな花を咲かせてくれるのか楽しみになり開花が待ち遠しいと思えた。
　食朝、名も知らぬ植物を見てみるとつぼみの周りに無数の小さな虫が付いているのが見えた。あまりの虫の数に驚きながら、自分で虫を取る事が出来ない名も知らぬ植物に代わり、私が虫を取り除く事にした。
　虫はじっとしているが気持ちのいい姿ではなく、恐る恐る手で取ってみる。はめていた手袋にう"
"1069349","structured","9","380389","17000","output","1525","「ココ」という宛先から私のスマホにメールが来た。
バグっているのか、メールの時間設定がおかしい。
少し怖いが、好奇心に勝てずメールを開くことにした。
「父さん、8月のお盆に実家に帰ります。心配しなくてもこちらは大丈夫。大学でも上手くやっています。」
さすがにこのメールをそのままスルーするのはよくないと考え、私は送信相手に間違っているというメールを送ることにしました。
メール送信後、送信相手からお礼のメールが送られてきて、そこにはか"
"4441706","structured","20","723326","42000","output","1512","田中太郎は、子供のころから野球を見ることが好きであった。彼はもともとテレビで野球を見ているだけであったが、次第に自分でも野球がしたいと思うようになった。そのことを太郎は両親に相談したところ、地元で活動しているリトルリーグのチームを教えてもらった。太郎は興味があったので、このチームに入って野球を始めることにした。
太郎は野球をすることが初めてあったので、チームに入った当初は、なかなかチームの練習についていくことができなかった。太郎はチームの中で一番下手な選手であったため、試合に出ることもできなかった。
太郎はベンチから試合を見ながら、いつの日か自分も試合に出たいと考えていた。そのために太郎はずっと真面目に練習を続けていたが、どれだけ真面目に練習をしても、太郎は試合に出ることができなかった。
太郎は次第に、練習をするのが辛くなってきた。いくら練習をしても試合に出られないので、チームをやめたくなった。そのことを太郎は、監督に相談したところ、監督はあきらめずに練習を続けろと、太郎をはげました。
ある日の試合で、太郎はその日もベンチから試合を見ていた。今日も試合に出られないと太郎は考えていたが、チャンスの場面で監督は、"
"4858226","structured","24","819134","34000","revision","1422","ある日、突然ある国から伝染病が起き始める。
過去にない症状なので初めのころはパニック状態が続いた。
いろんな国の学者や医者がこの病原菌について調べ始めたが、なかなかいい答えが見つからなかった。
この病原菌のもっとも近くにいたのはその学者たちであったので、だんだんと学者たちにも感染者が増えていくことになる。
一番研究をしている人々が解決策を調べないといけないのだが、自らが感染してしまっているので、解決策はなかなかみつからずに難航していた。
しばらくその流れが続いたころ、急速に感染者が増えていたのがなぜか和らぎ始めた。
なぜかはわからないが、以前よりも感染が減ってきているような感じなのだ。
いろいろと調べたところ、どうやらこの菌は３か月ほどで自然に消滅するものだと判明する。
ちょうどそのころ、警察からある情報が入り始める。
どうやら感染源はある組織が作り出したもので、国をパニックにするために作り出したようだという。
結果その組織はその情報通りであって、警察に捕まり、この騒動はゆっくりと収まったのである。"
