"success","task","trial_type","trial_index","time_elapsed","internal_node_id","ID","condition","StartTime","EndTime","view_history","rt","stimulus","response","response_raw","response_normalized","correct_answer","correct"
"1","FullScreen","fullscreen","0","9210","0.0-0.0","3124577","control","2025/8/8 11:31:47","2025/8/8 11:36:10",NULL,NULL,NULL,NULL,NULL,NULL,NULL,NULL
NULL,"practice_task_inst_tl","instructions","1","39939","0.0-1.0","3124577","control","2025/8/8 11:31:47","2025/8/8 11:36:10","Array","30728",NULL,NULL,NULL,NULL,NULL,NULL
NULL,"presentation_trials_practice","html-keyboard-response","2","40940","0.0-2.0-0.0-0.0","3124577","control","2025/8/8 11:31:47","2025/8/8 11:36:10",NULL,NULL,"<div style=""font-size: 48px;"">C</div>",NULL,NULL,NULL,NULL,NULL
NULL,"presentation_trials_practice","html-keyboard-response","3","41941","0.0-2.0-0.0-1.0","3124577","control","2025/8/8 11:31:47","2025/8/8 11:36:10",NULL,NULL,"<div style=""font-size: 48px;"">2</div>",NULL,NULL,NULL,NULL,NULL
NULL,"presentation_trials_practice","html-keyboard-response","4","42943","0.0-2.0-0.0-2.0","3124577","control","2025/8/8 11:31:47","2025/8/8 11:36:10",NULL,NULL,"<div style=""font-size: 48px;"">A</div>",NULL,NULL,NULL,NULL,NULL
NULL,NULL,"html-keyboard-response","5","43944","0.0-2.0-0.0-3.0","3124577","control","2025/8/8 11:31:47","2025/8/8 11:36:10",NULL,NULL,,NULL,NULL,NULL,NULL,NULL
NULL,"response_trials_practice","html-keyboard-response","6","51826","0.0-2.0-0.0-4.0","3124577","control","2025/8/8 11:31:47","2025/8/8 11:36:10",NULL,NULL,NULL,NULL,"2AC","2AC","2AC","1"
NULL,NULL,"html-keyboard-response","7","53828","0.0-2.0-0.0-5.0","3124577","control","2025/8/8 11:31:47","2025/8/8 11:36:10",NULL,NULL,"<p style='color:green; font-size: 48px;'>正解です！</p>",NULL,NULL,NULL,NULL,NULL
NULL,"presentation_trials_practice","html-keyboard-response","8","54830","0.0-2.0-1.0-0.0","3124577","control","2025/8/8 11:31:47","2025/8/8 11:36:10",NULL,NULL,"<div style=""font-size: 48px;"">B</div>",NULL,NULL,NULL,NULL,NULL
NULL,"presentation_trials_practice","html-keyboard-response","9","55832","0.0-2.0-1.0-1.0","3124577","control","2025/8/8 11:31:47","2025/8/8 11:36:10",NULL,NULL,"<div style=""font-size: 48px;"">5</div>",NULL,NULL,NULL,NULL,NULL
NULL,"presentation_trials_practice","html-keyboard-response","10","56833","0.0-2.0-1.0-2.0","3124577","control","2025/8/8 11:31:47","2025/8/8 11:36:10",NULL,NULL,"<div style=""font-size: 48px;"">D</div>",NULL,NULL,NULL,NULL,NULL
NULL,NULL,"html-keyboard-response","11","57835","0.0-2.0-1.0-3.0","3124577","control","2025/8/8 11:31:47","2025/8/8 11:36:10",NULL,NULL,,NULL,NULL,NULL,NULL,NULL
NULL,"response_trials_practice","html-keyboard-response","12","64242","0.0-2.0-1.0-4.0","3124577","control","2025/8/8 11:31:47","2025/8/8 11:36:10",NULL,NULL,NULL,NULL,"5BD","5BD","5BD","1"
NULL,NULL,"html-keyboard-response","13","66244","0.0-2.0-1.0-5.0","3124577","control","2025/8/8 11:31:47","2025/8/8 11:36:10",NULL,NULL,"<p style='color:green; font-size: 48px;'>正解です！</p>",NULL,NULL,NULL,NULL,NULL
NULL,"presentation_trials_practice","html-keyboard-response","14","67245","0.0-2.0-2.0-0.0","3124577","control","2025/8/8 11:31:47","2025/8/8 11:36:10",NULL,NULL,"<div style=""font-size: 48px;"">1</div>",NULL,NULL,NULL,NULL,NULL
NULL,"presentation_trials_practice","html-keyboard-response","15","68246","0.0-2.0-2.0-1.0","3124577","control","2025/8/8 11:31:47","2025/8/8 11:36:10",NULL,NULL,"<div style=""font-size: 48px;"">G</div>",NULL,NULL,NULL,NULL,NULL
NULL,"presentation_trials_practice","html-keyboard-response","16","69248","0.0-2.0-2.0-2.0","3124577","control","2025/8/8 11:31:47","2025/8/8 11:36:10",NULL,NULL,"<div style=""font-size: 48px;"">C</div>",NULL,NULL,NULL,NULL,NULL
NULL,"presentation_trials_practice","html-keyboard-response","17","70249","0.0-2.0-2.0-3.0","3124577","control","2025/8/8 11:31:47","2025/8/8 11:36:10",NULL,NULL,"<div style=""font-size: 48px;"">7</div>",NULL,NULL,NULL,NULL,NULL
NULL,NULL,"html-keyboard-response","18","71250","0.0-2.0-2.0-4.0","3124577","control","2025/8/8 11:31:47","2025/8/8 11:36:10",NULL,NULL,,NULL,NULL,NULL,NULL,NULL
NULL,"response_trials_practice","html-keyboard-response","19","75362","0.0-2.0-2.0-5.0","3124577","control","2025/8/8 11:31:47","2025/8/8 11:36:10",NULL,NULL,NULL,NULL,"17CG","17CG","17CG","1"
NULL,NULL,"html-keyboard-response","20","77363","0.0-2.0-2.0-6.0","3124577","control","2025/8/8 11:31:47","2025/8/8 11:36:10",NULL,NULL,"<p style='color:green; font-size: 48px;'>正解です！</p>",NULL,NULL,NULL,NULL,NULL
NULL,"presentation_trials_practice","html-keyboard-response","21","78364","0.0-2.0-3.0-0.0","3124577","control","2025/8/8 11:31:47","2025/8/8 11:36:10",NULL,NULL,"<div style=""font-size: 48px;"">F</div>",NULL,NULL,NULL,NULL,NULL
NULL,"presentation_trials_practice","html-keyboard-response","22","79366","0.0-2.0-3.0-1.0","3124577","control","2025/8/8 11:31:47","2025/8/8 11:36:10",NULL,NULL,"<div style=""font-size: 48px;"">6</div>",NULL,NULL,NULL,NULL,NULL
NULL,"presentation_trials_practice","html-keyboard-response","23","80367","0.0-2.0-3.0-2.0","3124577","control","2025/8/8 11:31:47","2025/8/8 11:36:10",NULL,NULL,"<div style=""font-size: 48px;"">A</div>",NULL,NULL,NULL,NULL,NULL
NULL,"presentation_trials_practice","html-keyboard-response","24","81368","0.0-2.0-3.0-3.0","3124577","control","2025/8/8 11:31:47","2025/8/8 11:36:10",NULL,NULL,"<div style=""font-size: 48px;"">2</div>",NULL,NULL,NULL,NULL,NULL
NULL,NULL,"html-keyboard-response","25","82369","0.0-2.0-3.0-4.0","3124577","control","2025/8/8 11:31:47","2025/8/8 11:36:10",NULL,NULL,,NULL,NULL,NULL,NULL,NULL
NULL,"response_trials_practice","html-keyboard-response","26","86930","0.0-2.0-3.0-5.0","3124577","control","2025/8/8 11:31:47","2025/8/8 11:36:10",NULL,NULL,NULL,NULL,"26AF","26AF","26AF","1"
NULL,NULL,"html-keyboard-response","27","88931","0.0-2.0-3.0-6.0","3124577","control","2025/8/8 11:31:47","2025/8/8 11:36:10",NULL,NULL,"<p style='color:green; font-size: 48px;'>正解です！</p>",NULL,NULL,NULL,NULL,NULL
NULL,"main_task_inst_tl","instructions","28","94459","0.0-3.0","3124577","control","2025/8/8 11:31:47","2025/8/8 11:36:10","Array","5527",NULL,NULL,NULL,NULL,NULL,NULL
NULL,"presentation_trials_main","html-keyboard-response","29","95461","0.0-4.0-0.0-0.0","3124577","control","2025/8/8 11:31:47","2025/8/8 11:36:10",NULL,NULL,"<div style=""font-size: 48px;"">D</div>",NULL,NULL,NULL,NULL,NULL
NULL,"presentation_trials_main","html-keyboard-response","30","96462","0.0-4.0-0.0-1.0","3124577","control","2025/8/8 11:31:47","2025/8/8 11:36:10",NULL,NULL,"<div style=""font-size: 48px;"">3</div>",NULL,NULL,NULL,NULL,NULL
NULL,"presentation_trials_main","html-keyboard-response","31","97463","0.0-4.0-0.0-2.0","3124577","control","2025/8/8 11:31:47","2025/8/8 11:36:10",NULL,NULL,"<div style=""font-size: 48px;"">B</div>",NULL,NULL,NULL,NULL,NULL
NULL,"presentation_trials_main","html-keyboard-response","32","98464","0.0-4.0-0.0-3.0","3124577","control","2025/8/8 11:31:47","2025/8/8 11:36:10",NULL,NULL,"<div style=""font-size: 48px;"">1</div>",NULL,NULL,NULL,NULL,NULL
NULL,NULL,"html-keyboard-response","33","99465","0.0-4.0-0.0-4.0","3124577","control","2025/8/8 11:31:47","2025/8/8 11:36:10",NULL,NULL,,NULL,NULL,NULL,NULL,NULL
NULL,"response_trials_main","html-keyboard-response","34","103978","0.0-4.0-0.0-5.0","3124577","control","2025/8/8 11:31:47","2025/8/8 11:36:10",NULL,NULL,NULL,NULL,"13BD","13BD","13BD","1"
NULL,"presentation_trials_main","html-keyboard-response","35","104979","0.0-4.0-1.0-0.0","3124577","control","2025/8/8 11:31:47","2025/8/8 11:36:10",NULL,NULL,"<div style=""font-size: 48px;"">A</div>",NULL,NULL,NULL,NULL,NULL
NULL,"presentation_trials_main","html-keyboard-response","36","105980","0.0-4.0-1.0-1.0","3124577","control","2025/8/8 11:31:47","2025/8/8 11:36:10",NULL,NULL,"<div style=""font-size: 48px;"">7</div>",NULL,NULL,NULL,NULL,NULL
NULL,"presentation_trials_main","html-keyboard-response","37","106981","0.0-4.0-1.0-2.0","3124577","control","2025/8/8 11:31:47","2025/8/8 11:36:10",NULL,NULL,"<div style=""font-size: 48px;"">4</div>",NULL,NULL,NULL,NULL,NULL
NULL,"presentation_trials_main","html-keyboard-response","38","107982","0.0-4.0-1.0-3.0","3124577","control","2025/8/8 11:31:47","2025/8/8 11:36:10",NULL,NULL,"<div style=""font-size: 48px;"">F</div>",NULL,NULL,NULL,NULL,NULL
NULL,NULL,"html-keyboard-response","39","108984","0.0-4.0-1.0-4.0","3124577","control","2025/8/8 11:31:47","2025/8/8 11:36:10",NULL,NULL,,NULL,NULL,NULL,NULL,NULL
NULL,"response_trials_main","html-keyboard-response","40","112082","0.0-4.0-1.0-5.0","3124577","control","2025/8/8 11:31:47","2025/8/8 11:36:10",NULL,NULL,NULL,NULL,"47AF","47AF","47AF","1"
NULL,"presentation_trials_main","html-keyboard-response","41","113083","0.0-4.0-2.0-0.0","3124577","control","2025/8/8 11:31:47","2025/8/8 11:36:10",NULL,NULL,"<div style=""font-size: 48px;"">2</div>",NULL,NULL,NULL,NULL,NULL
NULL,"presentation_trials_main","html-keyboard-response","42","114087","0.0-4.0-2.0-1.0","3124577","control","2025/8/8 11:31:47","2025/8/8 11:36:10",NULL,NULL,"<div style=""font-size: 48px;"">G</div>",NULL,NULL,NULL,NULL,NULL
NULL,"presentation_trials_main","html-keyboard-response","43","115089","0.0-4.0-2.0-2.0","3124577","control","2025/8/8 11:31:47","2025/8/8 11:36:10",NULL,NULL,"<div style=""font-size: 48px;"">E</div>",NULL,NULL,NULL,NULL,NULL
NULL,"presentation_trials_main","html-keyboard-response","44","116091","0.0-4.0-2.0-3.0","3124577","control","2025/8/8 11:31:47","2025/8/8 11:36:10",NULL,NULL,"<div style=""font-size: 48px;"">5</div>",NULL,NULL,NULL,NULL,NULL
NULL,NULL,"html-keyboard-response","45","117093","0.0-4.0-2.0-4.0","3124577","control","2025/8/8 11:31:47","2025/8/8 11:36:10",NULL,NULL,,NULL,NULL,NULL,NULL,NULL
NULL,"response_trials_main","html-keyboard-response","46","120538","0.0-4.0-2.0-5.0","3124577","control","2025/8/8 11:31:47","2025/8/8 11:36:10",NULL,NULL,NULL,NULL,"25EG","25EG","25EG","1"
NULL,"presentation_trials_main","html-keyboard-response","47","121541","0.0-4.0-3.0-0.0","3124577","control","2025/8/8 11:31:47","2025/8/8 11:36:10",NULL,NULL,"<div style=""font-size: 48px;"">D</div>",NULL,NULL,NULL,NULL,NULL
NULL,"presentation_trials_main","html-keyboard-response","48","122543","0.0-4.0-3.0-1.0","3124577","control","2025/8/8 11:31:47","2025/8/8 11:36:10",NULL,NULL,"<div style=""font-size: 48px;"">3</div>",NULL,NULL,NULL,NULL,NULL
NULL,"presentation_trials_main","html-keyboard-response","49","123545","0.0-4.0-3.0-2.0","3124577","control","2025/8/8 11:31:47","2025/8/8 11:36:10",NULL,NULL,"<div style=""font-size: 48px;"">B</div>",NULL,NULL,NULL,NULL,NULL
NULL,"presentation_trials_main","html-keyboard-response","50","124546","0.0-4.0-3.0-3.0","3124577","control","2025/8/8 11:31:47","2025/8/8 11:36:10",NULL,NULL,"<div style=""font-size: 48px;"">7</div>",NULL,NULL,NULL,NULL,NULL
NULL,"presentation_trials_main","html-keyboard-response","51","125547","0.0-4.0-3.0-4.0","3124577","control","2025/8/8 11:31:47","2025/8/8 11:36:10",NULL,NULL,"<div style=""font-size: 48px;"">A</div>",NULL,NULL,NULL,NULL,NULL
NULL,NULL,"html-keyboard-response","52","126549","0.0-4.0-3.0-5.0","3124577","control","2025/8/8 11:31:47","2025/8/8 11:36:10",NULL,NULL,,NULL,NULL,NULL,NULL,NULL
NULL,"response_trials_main","html-keyboard-response","53","131898","0.0-4.0-3.0-6.0","3124577","control","2025/8/8 11:31:47","2025/8/8 11:36:10",NULL,NULL,NULL,NULL,"37ABE","37ABE","37ABD",
NULL,"presentation_trials_main","html-keyboard-response","54","132900","0.0-4.0-4.0-0.0","3124577","control","2025/8/8 11:31:47","2025/8/8 11:36:10",NULL,NULL,"<div style=""font-size: 48px;"">F</div>",NULL,NULL,NULL,NULL,NULL
NULL,"presentation_trials_main","html-keyboard-response","55","133901","0.0-4.0-4.0-1.0","3124577","control","2025/8/8 11:31:47","2025/8/8 11:36:10",NULL,NULL,"<div style=""font-size: 48px;"">2</div>",NULL,NULL,NULL,NULL,NULL
NULL,"presentation_trials_main","html-keyboard-response","56","134902","0.0-4.0-4.0-2.0","3124577","control","2025/8/8 11:31:47","2025/8/8 11:36:10",NULL,NULL,"<div style=""font-size: 48px;"">K</div>",NULL,NULL,NULL,NULL,NULL
NULL,"presentation_trials_main","html-keyboard-response","57","135903","0.0-4.0-4.0-3.0","3124577","control","2025/8/8 11:31:47","2025/8/8 11:36:10",NULL,NULL,"<div style=""font-size: 48px;"">5</div>",NULL,NULL,NULL,NULL,NULL
NULL,"presentation_trials_main","html-keyboard-response","58","136904","0.0-4.0-4.0-4.0","3124577","control","2025/8/8 11:31:47","2025/8/8 11:36:10",NULL,NULL,"<div style=""font-size: 48px;"">C</div>",NULL,NULL,NULL,NULL,NULL
NULL,NULL,"html-keyboard-response","59","137906","0.0-4.0-4.0-5.0","3124577","control","2025/8/8 11:31:47","2025/8/8 11:36:10",NULL,NULL,,NULL,NULL,NULL,NULL,NULL
NULL,"response_trials_main","html-keyboard-response","60","145042","0.0-4.0-4.0-6.0","3124577","control","2025/8/8 11:31:47","2025/8/8 11:36:10",NULL,NULL,NULL,NULL,"25CFK","25CFK","25CFK","1"
NULL,"presentation_trials_main","html-keyboard-response","61","146043","0.0-4.0-5.0-0.0","3124577","control","2025/8/8 11:31:47","2025/8/8 11:36:10",NULL,NULL,"<div style=""font-size: 48px;"">4</div>",NULL,NULL,NULL,NULL,NULL
NULL,"presentation_trials_main","html-keyboard-response","62","147046","0.0-4.0-5.0-1.0","3124577","control","2025/8/8 11:31:47","2025/8/8 11:36:10",NULL,NULL,"<div style=""font-size: 48px;"">M</div>",NULL,NULL,NULL,NULL,NULL
NULL,"presentation_trials_main","html-keyboard-response","63","148047","0.0-4.0-5.0-2.0","3124577","control","2025/8/8 11:31:47","2025/8/8 11:36:10",NULL,NULL,"<div style=""font-size: 48px;"">H</div>",NULL,NULL,NULL,NULL,NULL
NULL,"presentation_trials_main","html-keyboard-response","64","149048","0.0-4.0-5.0-3.0","3124577","control","2025/8/8 11:31:47","2025/8/8 11:36:10",NULL,NULL,"<div style=""font-size: 48px;"">1</div>",NULL,NULL,NULL,NULL,NULL
NULL,"presentation_trials_main","html-keyboard-response","65","150050","0.0-4.0-5.0-4.0","3124577","control","2025/8/8 11:31:47","2025/8/8 11:36:10",NULL,NULL,"<div style=""font-size: 48px;"">E</div>",NULL,NULL,NULL,NULL,NULL
NULL,NULL,"html-keyboard-response","66","151051","0.0-4.0-5.0-5.0","3124577","control","2025/8/8 11:31:47","2025/8/8 11:36:10",NULL,NULL,,NULL,NULL,NULL,NULL,NULL
NULL,"response_trials_main","html-keyboard-response","67","157306","0.0-4.0-5.0-6.0","3124577","control","2025/8/8 11:31:47","2025/8/8 11:36:10",NULL,NULL,NULL,NULL,"14EHM","14EHM","14EHM","1"
NULL,"presentation_trials_main","html-keyboard-response","68","158308","0.0-4.0-6.0-0.0","3124577","control","2025/8/8 11:31:47","2025/8/8 11:36:10",NULL,NULL,"<div style=""font-size: 48px;"">G</div>",NULL,NULL,NULL,NULL,NULL
NULL,"presentation_trials_main","html-keyboard-response","69","159310","0.0-4.0-6.0-1.0","3124577","control","2025/8/8 11:31:47","2025/8/8 11:36:10",NULL,NULL,"<div style=""font-size: 48px;"">9</div>",NULL,NULL,NULL,NULL,NULL
NULL,"presentation_trials_main","html-keyboard-response","70","160311","0.0-4.0-6.0-2.0","3124577","control","2025/8/8 11:31:47","2025/8/8 11:36:10",NULL,NULL,"<div style=""font-size: 48px;"">2</div>",NULL,NULL,NULL,NULL,NULL
NULL,"presentation_trials_main","html-keyboard-response","71","161312","0.0-4.0-6.0-3.0","3124577","control","2025/8/8 11:31:47","2025/8/8 11:36:10",NULL,NULL,"<div style=""font-size: 48px;"">L</div>",NULL,NULL,NULL,NULL,NULL
NULL,"presentation_trials_main","html-keyboard-response","72","162313","0.0-4.0-6.0-4.0","3124577","control","2025/8/8 11:31:47","2025/8/8 11:36:10",NULL,NULL,"<div style=""font-size: 48px;"">A</div>",NULL,NULL,NULL,NULL,NULL
NULL,"presentation_trials_main","html-keyboard-response","73","163314","0.0-4.0-6.0-5.0","3124577","control","2025/8/8 11:31:47","2025/8/8 11:36:10",NULL,NULL,"<div style=""font-size: 48px;"">5</div>",NULL,NULL,NULL,NULL,NULL
NULL,NULL,"html-keyboard-response","74","164315","0.0-4.0-6.0-6.0","3124577","control","2025/8/8 11:31:47","2025/8/8 11:36:10",NULL,NULL,,NULL,NULL,NULL,NULL,NULL
NULL,"response_trials_main","html-keyboard-response","75","174043","0.0-4.0-6.0-7.0","3124577","control","2025/8/8 11:31:47","2025/8/8 11:36:10",NULL,NULL,NULL,NULL,"259ALG","259ALG","259AGL",
NULL,"presentation_trials_main","html-keyboard-response","76","175044","0.0-4.0-7.0-0.0","3124577","control","2025/8/8 11:31:47","2025/8/8 11:36:10",NULL,NULL,"<div style=""font-size: 48px;"">3</div>",NULL,NULL,NULL,NULL,NULL
NULL,"presentation_trials_main","html-keyboard-response","77","176045","0.0-4.0-7.0-1.0","3124577","control","2025/8/8 11:31:47","2025/8/8 11:36:10",NULL,NULL,"<div style=""font-size: 48px;"">B</div>",NULL,NULL,NULL,NULL,NULL
NULL,"presentation_trials_main","html-keyboard-response","78","177047","0.0-4.0-7.0-2.0","3124577","control","2025/8/8 11:31:47","2025/8/8 11:36:10",NULL,NULL,"<div style=""font-size: 48px;"">N</div>",NULL,NULL,NULL,NULL,NULL
NULL,"presentation_trials_main","html-keyboard-response","79","178048","0.0-4.0-7.0-3.0","3124577","control","2025/8/8 11:31:47","2025/8/8 11:36:10",NULL,NULL,"<div style=""font-size: 48px;"">7</div>",NULL,NULL,NULL,NULL,NULL
NULL,"presentation_trials_main","html-keyboard-response","80","179050","0.0-4.0-7.0-4.0","3124577","control","2025/8/8 11:31:47","2025/8/8 11:36:10",NULL,NULL,"<div style=""font-size: 48px;"">D</div>",NULL,NULL,NULL,NULL,NULL
NULL,"presentation_trials_main","html-keyboard-response","81","180051","0.0-4.0-7.0-5.0","3124577","control","2025/8/8 11:31:47","2025/8/8 11:36:10",NULL,NULL,"<div style=""font-size: 48px;"">F</div>",NULL,NULL,NULL,NULL,NULL
NULL,NULL,"html-keyboard-response","82","181053","0.0-4.0-7.0-6.0","3124577","control","2025/8/8 11:31:47","2025/8/8 11:36:10",NULL,NULL,,NULL,NULL,NULL,NULL,NULL
NULL,"response_trials_main","html-keyboard-response","83","192723","0.0-4.0-7.0-7.0","3124577","control","2025/8/8 11:31:47","2025/8/8 11:36:10",NULL,NULL,NULL,NULL,"37BDFN","37BDFN","37BDFN","1"
NULL,"presentation_trials_main","html-keyboard-response","84","193724","0.0-4.0-8.0-0.0","3124577","control","2025/8/8 11:31:47","2025/8/8 11:36:10",NULL,NULL,"<div style=""font-size: 48px;"">E</div>",NULL,NULL,NULL,NULL,NULL
NULL,"presentation_trials_main","html-keyboard-response","85","194732","0.0-4.0-8.0-1.0","3124577","control","2025/8/8 11:31:47","2025/8/8 11:36:10",NULL,NULL,"<div style=""font-size: 48px;"">6</div>",NULL,NULL,NULL,NULL,NULL
NULL,"presentation_trials_main","html-keyboard-response","86","195734","0.0-4.0-8.0-2.0","3124577","control","2025/8/8 11:31:47","2025/8/8 11:36:10",NULL,NULL,"<div style=""font-size: 48px;"">1</div>",NULL,NULL,NULL,NULL,NULL
NULL,"presentation_trials_main","html-keyboard-response","87","196746","0.0-4.0-8.0-3.0","3124577","control","2025/8/8 11:31:47","2025/8/8 11:36:10",NULL,NULL,"<div style=""font-size: 48px;"">Q</div>",NULL,NULL,NULL,NULL,NULL
NULL,"presentation_trials_main","html-keyboard-response","88","197747","0.0-4.0-8.0-4.0","3124577","control","2025/8/8 11:31:47","2025/8/8 11:36:10",NULL,NULL,"<div style=""font-size: 48px;"">H</div>",NULL,NULL,NULL,NULL,NULL
NULL,"presentation_trials_main","html-keyboard-response","89","198748","0.0-4.0-8.0-5.0","3124577","control","2025/8/8 11:31:47","2025/8/8 11:36:10",NULL,NULL,"<div style=""font-size: 48px;"">8</div>",NULL,NULL,NULL,NULL,NULL
NULL,NULL,"html-keyboard-response","90","199749","0.0-4.0-8.0-6.0","3124577","control","2025/8/8 11:31:47","2025/8/8 11:36:10",NULL,NULL,,NULL,NULL,NULL,NULL,NULL
NULL,"response_trials_main","html-keyboard-response","91","205170","0.0-4.0-8.0-7.0","3124577","control","2025/8/8 11:31:47","2025/8/8 11:36:10",NULL,NULL,NULL,NULL,"168EHQ","168EHQ","168EHQ","1"
NULL,"presentation_trials_main","html-keyboard-response","92","206171","0.0-4.0-9.0-0.0","3124577","control","2025/8/8 11:31:47","2025/8/8 11:36:10",NULL,NULL,"<div style=""font-size: 48px;"">C</div>",NULL,NULL,NULL,NULL,NULL
NULL,"presentation_trials_main","html-keyboard-response","93","207172","0.0-4.0-9.0-1.0","3124577","control","2025/8/8 11:31:47","2025/8/8 11:36:10",NULL,NULL,"<div style=""font-size: 48px;"">4</div>",NULL,NULL,NULL,NULL,NULL
NULL,"presentation_trials_main","html-keyboard-response","94","208174","0.0-4.0-9.0-2.0","3124577","control","2025/8/8 11:31:47","2025/8/8 11:36:10",NULL,NULL,"<div style=""font-size: 48px;"">T</div>",NULL,NULL,NULL,NULL,NULL
NULL,"presentation_trials_main","html-keyboard-response","95","209175","0.0-4.0-9.0-3.0","3124577","control","2025/8/8 11:31:47","2025/8/8 11:36:10",NULL,NULL,"<div style=""font-size: 48px;"">K</div>",NULL,NULL,NULL,NULL,NULL
NULL,"presentation_trials_main","html-keyboard-response","96","210183","0.0-4.0-9.0-4.0","3124577","control","2025/8/8 11:31:47","2025/8/8 11:36:10",NULL,NULL,"<div style=""font-size: 48px;"">2</div>",NULL,NULL,NULL,NULL,NULL
NULL,"presentation_trials_main","html-keyboard-response","97","211184","0.0-4.0-9.0-5.0","3124577","control","2025/8/8 11:31:47","2025/8/8 11:36:10",NULL,NULL,"<div style=""font-size: 48px;"">A</div>",NULL,NULL,NULL,NULL,NULL
NULL,"presentation_trials_main","html-keyboard-response","98","212186","0.0-4.0-9.0-6.0","3124577","control","2025/8/8 11:31:47","2025/8/8 11:36:10",NULL,NULL,"<div style=""font-size: 48px;"">9</div>",NULL,NULL,NULL,NULL,NULL
NULL,NULL,"html-keyboard-response","99","213186","0.0-4.0-9.0-7.0","3124577","control","2025/8/8 11:31:47","2025/8/8 11:36:10",NULL,NULL,,NULL,NULL,NULL,NULL,NULL
NULL,"response_trials_main","html-keyboard-response","100","223771","0.0-4.0-9.0-8.0","3124577","control","2025/8/8 11:31:47","2025/8/8 11:36:10",NULL,NULL,NULL,NULL,"249ACKT","249ACKT","249ACKT","1"
NULL,"presentation_trials_main","html-keyboard-response","101","224773","0.0-4.0-10.0-0.0","3124577","control","2025/8/8 11:31:47","2025/8/8 11:36:10",NULL,NULL,"<div style=""font-size: 48px;"">6</div>",NULL,NULL,NULL,NULL,NULL
NULL,"presentation_trials_main","html-keyboard-response","102","225774","0.0-4.0-10.0-1.0","3124577","control","2025/8/8 11:31:47","2025/8/8 11:36:10",NULL,NULL,"<div style=""font-size: 48px;"">Z</div>",NULL,NULL,NULL,NULL,NULL
NULL,"presentation_trials_main","html-keyboard-response","103","226776","0.0-4.0-10.0-2.0","3124577","control","2025/8/8 11:31:47","2025/8/8 11:36:10",NULL,NULL,"<div style=""font-size: 48px;"">R</div>",NULL,NULL,NULL,NULL,NULL
NULL,"presentation_trials_main","html-keyboard-response","104","227778","0.0-4.0-10.0-3.0","3124577","control","2025/8/8 11:31:47","2025/8/8 11:36:10",NULL,NULL,"<div style=""font-size: 48px;"">3</div>",NULL,NULL,NULL,NULL,NULL
NULL,"presentation_trials_main","html-keyboard-response","105","228780","0.0-4.0-10.0-4.0","3124577","control","2025/8/8 11:31:47","2025/8/8 11:36:10",NULL,NULL,"<div style=""font-size: 48px;"">B</div>",NULL,NULL,NULL,NULL,NULL
NULL,"presentation_trials_main","html-keyboard-response","106","229781","0.0-4.0-10.0-5.0","3124577","control","2025/8/8 11:31:47","2025/8/8 11:36:10",NULL,NULL,"<div style=""font-size: 48px;"">J</div>",NULL,NULL,NULL,NULL,NULL
NULL,"presentation_trials_main","html-keyboard-response","107","230783","0.0-4.0-10.0-6.0","3124577","control","2025/8/8 11:31:47","2025/8/8 11:36:10",NULL,NULL,"<div style=""font-size: 48px;"">M</div>",NULL,NULL,NULL,NULL,NULL
NULL,NULL,"html-keyboard-response","108","231785","0.0-4.0-10.0-7.0","3124577","control","2025/8/8 11:31:47","2025/8/8 11:36:10",NULL,NULL,,NULL,NULL,NULL,NULL,NULL
NULL,"response_trials_main","html-keyboard-response","109","240379","0.0-4.0-10.0-8.0","3124577","control","2025/8/8 11:31:47","2025/8/8 11:36:10",NULL,NULL,NULL,NULL,"36BLRZ","36BLRZ","36BJMRZ",
NULL,"presentation_trials_main","html-keyboard-response","110","241380","0.0-4.0-11.0-0.0","3124577","control","2025/8/8 11:31:47","2025/8/8 11:36:10",NULL,NULL,"<div style=""font-size: 48px;"">L</div>",NULL,NULL,NULL,NULL,NULL
NULL,"presentation_trials_main","html-keyboard-response","111","242381","0.0-4.0-11.0-1.0","3124577","control","2025/8/8 11:31:47","2025/8/8 11:36:10",NULL,NULL,"<div style=""font-size: 48px;"">5</div>",NULL,NULL,NULL,NULL,NULL
NULL,"presentation_trials_main","html-keyboard-response","112","243382","0.0-4.0-11.0-2.0","3124577","control","2025/8/8 11:31:47","2025/8/8 11:36:10",NULL,NULL,"<div style=""font-size: 48px;"">1</div>",NULL,NULL,NULL,NULL,NULL
NULL,"presentation_trials_main","html-keyboard-response","113","244384","0.0-4.0-11.0-3.0","3124577","control","2025/8/8 11:31:47","2025/8/8 11:36:10",NULL,NULL,"<div style=""font-size: 48px;"">G</div>",NULL,NULL,NULL,NULL,NULL
NULL,"presentation_trials_main","html-keyboard-response","114","245386","0.0-4.0-11.0-4.0","3124577","control","2025/8/8 11:31:47","2025/8/8 11:36:10",NULL,NULL,"<div style=""font-size: 48px;"">X</div>",NULL,NULL,NULL,NULL,NULL
NULL,"presentation_trials_main","html-keyboard-response","115","246387","0.0-4.0-11.0-5.0","3124577","control","2025/8/8 11:31:47","2025/8/8 11:36:10",NULL,NULL,"<div style=""font-size: 48px;"">D</div>",NULL,NULL,NULL,NULL,NULL
NULL,"presentation_trials_main","html-keyboard-response","116","247388","0.0-4.0-11.0-6.0","3124577","control","2025/8/8 11:31:47","2025/8/8 11:36:10",NULL,NULL,"<div style=""font-size: 48px;"">7</div>",NULL,NULL,NULL,NULL,NULL
NULL,NULL,"html-keyboard-response","117","248390","0.0-4.0-11.0-7.0","3124577","control","2025/8/8 11:31:47","2025/8/8 11:36:10",NULL,NULL,,NULL,NULL,NULL,NULL,NULL
NULL,"response_trials_main","html-keyboard-response","118","260979","0.0-4.0-11.0-8.0","3124577","control","2025/8/8 11:31:47","2025/8/8 11:36:10",NULL,NULL,NULL,NULL,"157GLXZ","157GLXZ","157DGLX",
NULL,"debrief","html-keyboard-response","119","263421","0.0-5.0","3124577","control","2025/8/8 11:31:47","2025/8/8 11:36:10",NULL,"2442","<p style='text-algin:left'>これで事前課題は終了になります。</p><p style='text-algin:left'>次に、文章産出課題の説明に移ります。</p><p style='text-algin:left'>準備ができたらスペースキーを押して、文章産出課題に進んでください。</p>"," ",NULL,NULL,NULL,NULL
"1","FullScreen","fullscreen","0","3661","0.0-0.0","6233409","control","2025/8/8 11:32:35","2025/8/8 11:37:05",NULL,NULL,NULL,NULL,NULL,NULL,NULL,NULL
NULL,"practice_task_inst_tl","instructions","1","25472","0.0-1.0","6233409","control","2025/8/8 11:32:35","2025/8/8 11:37:05","Array","21810",NULL,NULL,NULL,NULL,NULL,NULL
NULL,"presentation_trials_practice","html-keyboard-response","2","26474","0.0-2.0-0.0-0.0","6233409","control","2025/8/8 11:32:35","2025/8/8 11:37:05",NULL,NULL,"<div style=""font-size: 48px;"">C</div>",NULL,NULL,NULL,NULL,NULL
NULL,"presentation_trials_practice","html-keyboard-response","3","27480","0.0-2.0-0.0-1.0","6233409","control","2025/8/8 11:32:35","2025/8/8 11:37:05",NULL,NULL,"<div style=""font-size: 48px;"">2</div>",NULL,NULL,NULL,NULL,NULL
NULL,"presentation_trials_practice","html-keyboard-response","4","28496","0.0-2.0-0.0-2.0","6233409","control","2025/8/8 11:32:35","2025/8/8 11:37:05",NULL,NULL,"<div style=""font-size: 48px;"">A</div>",NULL,NULL,NULL,NULL,NULL
NULL,NULL,"html-keyboard-response","5","29498","0.0-2.0-0.0-3.0","6233409","control","2025/8/8 11:32:35","2025/8/8 11:37:05",NULL,NULL,,NULL,NULL,NULL,NULL,NULL
NULL,"response_trials_practice","html-keyboard-response","6","47024","0.0-2.0-0.0-4.0","6233409","control","2025/8/8 11:32:35","2025/8/8 11:37:05",NULL,NULL,NULL,NULL,"123A","123A","2AC",
NULL,NULL,"html-keyboard-response","7","49026","0.0-2.0-0.0-5.0","6233409","control","2025/8/8 11:32:35","2025/8/8 11:37:05",NULL,NULL,"<p style='color:red; font-size: 48px;'>不正解です。正しい答えは <code>2AC</code> です。</p>",NULL,NULL,NULL,NULL,NULL
NULL,"presentation_trials_practice","html-keyboard-response","8","50027","0.0-2.0-1.0-0.0","6233409","control","2025/8/8 11:32:35","2025/8/8 11:37:05",NULL,NULL,"<div style=""font-size: 48px;"">B</div>",NULL,NULL,NULL,NULL,NULL
NULL,"presentation_trials_practice","html-keyboard-response","9","51028","0.0-2.0-1.0-1.0","6233409","control","2025/8/8 11:32:35","2025/8/8 11:37:05",NULL,NULL,"<div style=""font-size: 48px;"">5</div>",NULL,NULL,NULL,NULL,NULL
NULL,"presentation_trials_practice","html-keyboard-response","10","52030","0.0-2.0-1.0-2.0","6233409","control","2025/8/8 11:32:35","2025/8/8 11:37:05",NULL,NULL,"<div style=""font-size: 48px;"">D</div>",NULL,NULL,NULL,NULL,NULL
NULL,NULL,"html-keyboard-response","11","53032","0.0-2.0-1.0-3.0","6233409","control","2025/8/8 11:32:35","2025/8/8 11:37:05",NULL,NULL,,NULL,NULL,NULL,NULL,NULL
NULL,"response_trials_practice","html-keyboard-response","12","58039","0.0-2.0-1.0-4.0","6233409","control","2025/8/8 11:32:35","2025/8/8 11:37:05",NULL,NULL,NULL,NULL,"5BD","5BD","5BD","1"
NULL,NULL,"html-keyboard-response","13","60042","0.0-2.0-1.0-5.0","6233409","control","2025/8/8 11:32:35","2025/8/8 11:37:05",NULL,NULL,"<p style='color:green; font-size: 48px;'>正解です！</p>",NULL,NULL,NULL,NULL,NULL
NULL,"presentation_trials_practice","html-keyboard-response","14","61043","0.0-2.0-2.0-0.0","6233409","control","2025/8/8 11:32:35","2025/8/8 11:37:05",NULL,NULL,"<div style=""font-size: 48px;"">1</div>",NULL,NULL,NULL,NULL,NULL
NULL,"presentation_trials_practice","html-keyboard-response","15","62044","0.0-2.0-2.0-1.0","6233409","control","2025/8/8 11:32:35","2025/8/8 11:37:05",NULL,NULL,"<div style=""font-size: 48px;"">G</div>",NULL,NULL,NULL,NULL,NULL
NULL,"presentation_trials_practice","html-keyboard-response","16","63054","0.0-2.0-2.0-2.0","6233409","control","2025/8/8 11:32:35","2025/8/8 11:37:05",NULL,NULL,"<div style=""font-size: 48px;"">C</div>",NULL,NULL,NULL,NULL,NULL
NULL,"presentation_trials_practice","html-keyboard-response","17","64068","0.0-2.0-2.0-3.0","6233409","control","2025/8/8 11:32:35","2025/8/8 11:37:05",NULL,NULL,"<div style=""font-size: 48px;"">7</div>",NULL,NULL,NULL,NULL,NULL
NULL,NULL,"html-keyboard-response","18","65069","0.0-2.0-2.0-4.0","6233409","control","2025/8/8 11:32:35","2025/8/8 11:37:05",NULL,NULL,,NULL,NULL,NULL,NULL,NULL
NULL,"response_trials_practice","html-keyboard-response","19","70079","0.0-2.0-2.0-5.0","6233409","control","2025/8/8 11:32:35","2025/8/8 11:37:05",NULL,NULL,NULL,NULL,"17CG","17CG","17CG","1"
NULL,NULL,"html-keyboard-response","20","72081","0.0-2.0-2.0-6.0","6233409","control","2025/8/8 11:32:35","2025/8/8 11:37:05",NULL,NULL,"<p style='color:green; font-size: 48px;'>正解です！</p>",NULL,NULL,NULL,NULL,NULL
NULL,"presentation_trials_practice","html-keyboard-response","21","73082","0.0-2.0-3.0-0.0","6233409","control","2025/8/8 11:32:35","2025/8/8 11:37:05",NULL,NULL,"<div style=""font-size: 48px;"">F</div>",NULL,NULL,NULL,NULL,NULL
NULL,"presentation_trials_practice","html-keyboard-response","22","74084","0.0-2.0-3.0-1.0","6233409","control","2025/8/8 11:32:35","2025/8/8 11:37:05",NULL,NULL,"<div style=""font-size: 48px;"">6</div>",NULL,NULL,NULL,NULL,NULL
NULL,"presentation_trials_practice","html-keyboard-response","23","75085","0.0-2.0-3.0-2.0","6233409","control","2025/8/8 11:32:35","2025/8/8 11:37:05",NULL,NULL,"<div style=""font-size: 48px;"">A</div>",NULL,NULL,NULL,NULL,NULL
NULL,"presentation_trials_practice","html-keyboard-response","24","76087","0.0-2.0-3.0-3.0","6233409","control","2025/8/8 11:32:35","2025/8/8 11:37:05",NULL,NULL,"<div style=""font-size: 48px;"">2</div>",NULL,NULL,NULL,NULL,NULL
NULL,NULL,"html-keyboard-response","25","77089","0.0-2.0-3.0-4.0","6233409","control","2025/8/8 11:32:35","2025/8/8 11:37:05",NULL,NULL,,NULL,NULL,NULL,NULL,NULL
NULL,"response_trials_practice","html-keyboard-response","26","80039","0.0-2.0-3.0-5.0","6233409","control","2025/8/8 11:32:35","2025/8/8 11:37:05",NULL,NULL,NULL,NULL,"26AF","26AF","26AF","1"
NULL,NULL,"html-keyboard-response","27","82043","0.0-2.0-3.0-6.0","6233409","control","2025/8/8 11:32:35","2025/8/8 11:37:05",NULL,NULL,"<p style='color:green; font-size: 48px;'>正解です！</p>",NULL,NULL,NULL,NULL,NULL
NULL,"main_task_inst_tl","instructions","28","90047","0.0-3.0","6233409","control","2025/8/8 11:32:35","2025/8/8 11:37:05","Array","8005",NULL,NULL,NULL,NULL,NULL,NULL
NULL,"presentation_trials_main","html-keyboard-response","29","91049","0.0-4.0-0.0-0.0","6233409","control","2025/8/8 11:32:35","2025/8/8 11:37:05",NULL,NULL,"<div style=""font-size: 48px;"">D</div>",NULL,NULL,NULL,NULL,NULL
NULL,"presentation_trials_main","html-keyboard-response","30","92050","0.0-4.0-0.0-1.0","6233409","control","2025/8/8 11:32:35","2025/8/8 11:37:05",NULL,NULL,"<div style=""font-size: 48px;"">3</div>",NULL,NULL,NULL,NULL,NULL
NULL,"presentation_trials_main","html-keyboard-response","31","93051","0.0-4.0-0.0-2.0","6233409","control","2025/8/8 11:32:35","2025/8/8 11:37:05",NULL,NULL,"<div style=""font-size: 48px;"">B</div>",NULL,NULL,NULL,NULL,NULL
NULL,"presentation_trials_main","html-keyboard-response","32","94053","0.0-4.0-0.0-3.0","6233409","control","2025/8/8 11:32:35","2025/8/8 11:37:05",NULL,NULL,"<div style=""font-size: 48px;"">1</div>",NULL,NULL,NULL,NULL,NULL
NULL,NULL,"html-keyboard-response","33","95054","0.0-4.0-0.0-4.0","6233409","control","2025/8/8 11:32:35","2025/8/8 11:37:05",NULL,NULL,,NULL,NULL,NULL,NULL,NULL
NULL,"response_trials_main","html-keyboard-response","34","98903","0.0-4.0-0.0-5.0","6233409","control","2025/8/8 11:32:35","2025/8/8 11:37:05",NULL,NULL,NULL,NULL,"13BD","13BD","13BD","1"
NULL,"presentation_trials_main","html-keyboard-response","35","99905","0.0-4.0-1.0-0.0","6233409","control","2025/8/8 11:32:35","2025/8/8 11:37:05",NULL,NULL,"<div style=""font-size: 48px;"">A</div>",NULL,NULL,NULL,NULL,NULL
NULL,"presentation_trials_main","html-keyboard-response","36","100906","0.0-4.0-1.0-1.0","6233409","control","2025/8/8 11:32:35","2025/8/8 11:37:05",NULL,NULL,"<div style=""font-size: 48px;"">7</div>",NULL,NULL,NULL,NULL,NULL
NULL,"presentation_trials_main","html-keyboard-response","37","101907","0.0-4.0-1.0-2.0","6233409","control","2025/8/8 11:32:35","2025/8/8 11:37:05",NULL,NULL,"<div style=""font-size: 48px;"">4</div>",NULL,NULL,NULL,NULL,NULL
NULL,"presentation_trials_main","html-keyboard-response","38","102909","0.0-4.0-1.0-3.0","6233409","control","2025/8/8 11:32:35","2025/8/8 11:37:05",NULL,NULL,"<div style=""font-size: 48px;"">F</div>",NULL,NULL,NULL,NULL,NULL
NULL,NULL,"html-keyboard-response","39","103911","0.0-4.0-1.0-4.0","6233409","control","2025/8/8 11:32:35","2025/8/8 11:37:05",NULL,NULL,,NULL,NULL,NULL,NULL,NULL
NULL,"response_trials_main","html-keyboard-response","40","106880","0.0-4.0-1.0-5.0","6233409","control","2025/8/8 11:32:35","2025/8/8 11:37:05",NULL,NULL,NULL,NULL,"47AF","47AF","47AF","1"
NULL,"presentation_trials_main","html-keyboard-response","41","107881","0.0-4.0-2.0-0.0","6233409","control","2025/8/8 11:32:35","2025/8/8 11:37:05",NULL,NULL,"<div style=""font-size: 48px;"">2</div>",NULL,NULL,NULL,NULL,NULL
NULL,"presentation_trials_main","html-keyboard-response","42","108882","0.0-4.0-2.0-1.0","6233409","control","2025/8/8 11:32:35","2025/8/8 11:37:05",NULL,NULL,"<div style=""font-size: 48px;"">G</div>",NULL,NULL,NULL,NULL,NULL
NULL,"presentation_trials_main","html-keyboard-response","43","109883","0.0-4.0-2.0-2.0","6233409","control","2025/8/8 11:32:35","2025/8/8 11:37:05",NULL,NULL,"<div style=""font-size: 48px;"">E</div>",NULL,NULL,NULL,NULL,NULL
NULL,"presentation_trials_main","html-keyboard-response","44","110885","0.0-4.0-2.0-3.0","6233409","control","2025/8/8 11:32:35","2025/8/8 11:37:05",NULL,NULL,"<div style=""font-size: 48px;"">5</div>",NULL,NULL,NULL,NULL,NULL
NULL,NULL,"html-keyboard-response","45","111886","0.0-4.0-2.0-4.0","6233409","control","2025/8/8 11:32:35","2025/8/8 11:37:05",NULL,NULL,,NULL,NULL,NULL,NULL,NULL
NULL,"response_trials_main","html-keyboard-response","46","115887","0.0-4.0-2.0-5.0","6233409","control","2025/8/8 11:32:35","2025/8/8 11:37:05",NULL,NULL,NULL,NULL,"25EG","25EG","25EG","1"
NULL,"presentation_trials_main","html-keyboard-response","47","116889","0.0-4.0-3.0-0.0","6233409","control","2025/8/8 11:32:35","2025/8/8 11:37:05",NULL,NULL,"<div style=""font-size: 48px;"">D</div>",NULL,NULL,NULL,NULL,NULL
NULL,"presentation_trials_main","html-keyboard-response","48","117890","0.0-4.0-3.0-1.0","6233409","control","2025/8/8 11:32:35","2025/8/8 11:37:05",NULL,NULL,"<div style=""font-size: 48px;"">3</div>",NULL,NULL,NULL,NULL,NULL
NULL,"presentation_trials_main","html-keyboard-response","49","118891","0.0-4.0-3.0-2.0","6233409","control","2025/8/8 11:32:35","2025/8/8 11:37:05",NULL,NULL,"<div style=""font-size: 48px;"">B</div>",NULL,NULL,NULL,NULL,NULL
NULL,"presentation_trials_main","html-keyboard-response","50","119892","0.0-4.0-3.0-3.0","6233409","control","2025/8/8 11:32:35","2025/8/8 11:37:05",NULL,NULL,"<div style=""font-size: 48px;"">7</div>",NULL,NULL,NULL,NULL,NULL
NULL,"presentation_trials_main","html-keyboard-response","51","120893","0.0-4.0-3.0-4.0","6233409","control","2025/8/8 11:32:35","2025/8/8 11:37:05",NULL,NULL,"<div style=""font-size: 48px;"">A</div>",NULL,NULL,NULL,NULL,NULL
NULL,NULL,"html-keyboard-response","52","121895","0.0-4.0-3.0-5.0","6233409","control","2025/8/8 11:32:35","2025/8/8 11:37:05",NULL,NULL,,NULL,NULL,NULL,NULL,NULL
NULL,"response_trials_main","html-keyboard-response","53","125783","0.0-4.0-3.0-6.0","6233409","control","2025/8/8 11:32:35","2025/8/8 11:37:05",NULL,NULL,NULL,NULL,"37ABD","37ABD","37ABD","1"
NULL,"presentation_trials_main","html-keyboard-response","54","126784","0.0-4.0-4.0-0.0","6233409","control","2025/8/8 11:32:35","2025/8/8 11:37:05",NULL,NULL,"<div style=""font-size: 48px;"">F</div>",NULL,NULL,NULL,NULL,NULL
NULL,"presentation_trials_main","html-keyboard-response","55","127785","0.0-4.0-4.0-1.0","6233409","control","2025/8/8 11:32:35","2025/8/8 11:37:05",NULL,NULL,"<div style=""font-size: 48px;"">2</div>",NULL,NULL,NULL,NULL,NULL
NULL,"presentation_trials_main","html-keyboard-response","56","128787","0.0-4.0-4.0-2.0","6233409","control","2025/8/8 11:32:35","2025/8/8 11:37:05",NULL,NULL,"<div style=""font-size: 48px;"">K</div>",NULL,NULL,NULL,NULL,NULL
NULL,"presentation_trials_main","html-keyboard-response","57","129788","0.0-4.0-4.0-3.0","6233409","control","2025/8/8 11:32:35","2025/8/8 11:37:05",NULL,NULL,"<div style=""font-size: 48px;"">5</div>",NULL,NULL,NULL,NULL,NULL
NULL,"presentation_trials_main","html-keyboard-response","58","130789","0.0-4.0-4.0-4.0","6233409","control","2025/8/8 11:32:35","2025/8/8 11:37:05",NULL,NULL,"<div style=""font-size: 48px;"">C</div>",NULL,NULL,NULL,NULL,NULL
NULL,NULL,"html-keyboard-response","59","131790","0.0-4.0-4.0-5.0","6233409","control","2025/8/8 11:32:35","2025/8/8 11:37:05",NULL,NULL,,NULL,NULL,NULL,NULL,NULL
NULL,"response_trials_main","html-keyboard-response","60","139023","0.0-4.0-4.0-6.0","6233409","control","2025/8/8 11:32:35","2025/8/8 11:37:05",NULL,NULL,NULL,NULL,"25CFK","25CFK","25CFK","1"
NULL,"presentation_trials_main","html-keyboard-response","61","140025","0.0-4.0-5.0-0.0","6233409","control","2025/8/8 11:32:35","2025/8/8 11:37:05",NULL,NULL,"<div style=""font-size: 48px;"">4</div>",NULL,NULL,NULL,NULL,NULL
NULL,"presentation_trials_main","html-keyboard-response","62","141026","0.0-4.0-5.0-1.0","6233409","control","2025/8/8 11:32:35","2025/8/8 11:37:05",NULL,NULL,"<div style=""font-size: 48px;"">M</div>",NULL,NULL,NULL,NULL,NULL
NULL,"presentation_trials_main","html-keyboard-response","63","142027","0.0-4.0-5.0-2.0","6233409","control","2025/8/8 11:32:35","2025/8/8 11:37:05",NULL,NULL,"<div style=""font-size: 48px;"">H</div>",NULL,NULL,NULL,NULL,NULL
NULL,"presentation_trials_main","html-keyboard-response","64","143028","0.0-4.0-5.0-3.0","6233409","control","2025/8/8 11:32:35","2025/8/8 11:37:05",NULL,NULL,"<div style=""font-size: 48px;"">1</div>",NULL,NULL,NULL,NULL,NULL
NULL,"presentation_trials_main","html-keyboard-response","65","144029","0.0-4.0-5.0-4.0","6233409","control","2025/8/8 11:32:35","2025/8/8 11:37:05",NULL,NULL,"<div style=""font-size: 48px;"">E</div>",NULL,NULL,NULL,NULL,NULL
NULL,NULL,"html-keyboard-response","66","145030","0.0-4.0-5.0-5.0","6233409","control","2025/8/8 11:32:35","2025/8/8 11:37:05",NULL,NULL,,NULL,NULL,NULL,NULL,NULL
NULL,"response_trials_main","html-keyboard-response","67","155031","0.0-4.0-5.0-6.0","6233409","control","2025/8/8 11:32:35","2025/8/8 11:37:05",NULL,NULL,NULL,NULL,"14EHM","14EHM","14EHM","1"
NULL,"presentation_trials_main","html-keyboard-response","68","156032","0.0-4.0-6.0-0.0","6233409","control","2025/8/8 11:32:35","2025/8/8 11:37:05",NULL,NULL,"<div style=""font-size: 48px;"">G</div>",NULL,NULL,NULL,NULL,NULL
NULL,"presentation_trials_main","html-keyboard-response","69","157041","0.0-4.0-6.0-1.0","6233409","control","2025/8/8 11:32:35","2025/8/8 11:37:05",NULL,NULL,"<div style=""font-size: 48px;"">9</div>",NULL,NULL,NULL,NULL,NULL
NULL,"presentation_trials_main","html-keyboard-response","70","158042","0.0-4.0-6.0-2.0","6233409","control","2025/8/8 11:32:35","2025/8/8 11:37:05",NULL,NULL,"<div style=""font-size: 48px;"">2</div>",NULL,NULL,NULL,NULL,NULL
NULL,"presentation_trials_main","html-keyboard-response","71","159043","0.0-4.0-6.0-3.0","6233409","control","2025/8/8 11:32:35","2025/8/8 11:37:05",NULL,NULL,"<div style=""font-size: 48px;"">L</div>",NULL,NULL,NULL,NULL,NULL
NULL,"presentation_trials_main","html-keyboard-response","72","160051","0.0-4.0-6.0-4.0","6233409","control","2025/8/8 11:32:35","2025/8/8 11:37:05",NULL,NULL,"<div style=""font-size: 48px;"">A</div>",NULL,NULL,NULL,NULL,NULL
NULL,"presentation_trials_main","html-keyboard-response","73","161052","0.0-4.0-6.0-5.0","6233409","control","2025/8/8 11:32:35","2025/8/8 11:37:05",NULL,NULL,"<div style=""font-size: 48px;"">5</div>",NULL,NULL,NULL,NULL,NULL
NULL,NULL,"html-keyboard-response","74","162054","0.0-4.0-6.0-6.0","6233409","control","2025/8/8 11:32:35","2025/8/8 11:37:05",NULL,NULL,,NULL,NULL,NULL,NULL,NULL
NULL,"response_trials_main","html-keyboard-response","75","166791","0.0-4.0-6.0-7.0","6233409","control","2025/8/8 11:32:35","2025/8/8 11:37:05",NULL,NULL,NULL,NULL,"259AGL","259AGL","259AGL","1"
NULL,"presentation_trials_main","html-keyboard-response","76","167793","0.0-4.0-7.0-0.0","6233409","control","2025/8/8 11:32:35","2025/8/8 11:37:05",NULL,NULL,"<div style=""font-size: 48px;"">3</div>",NULL,NULL,NULL,NULL,NULL
NULL,"presentation_trials_main","html-keyboard-response","77","168795","0.0-4.0-7.0-1.0","6233409","control","2025/8/8 11:32:35","2025/8/8 11:37:05",NULL,NULL,"<div style=""font-size: 48px;"">B</div>",NULL,NULL,NULL,NULL,NULL
NULL,"presentation_trials_main","html-keyboard-response","78","169796","0.0-4.0-7.0-2.0","6233409","control","2025/8/8 11:32:35","2025/8/8 11:37:05",NULL,NULL,"<div style=""font-size: 48px;"">N</div>",NULL,NULL,NULL,NULL,NULL
NULL,"presentation_trials_main","html-keyboard-response","79","170797","0.0-4.0-7.0-3.0","6233409","control","2025/8/8 11:32:35","2025/8/8 11:37:05",NULL,NULL,"<div style=""font-size: 48px;"">7</div>",NULL,NULL,NULL,NULL,NULL
NULL,"presentation_trials_main","html-keyboard-response","80","171799","0.0-4.0-7.0-4.0","6233409","control","2025/8/8 11:32:35","2025/8/8 11:37:05",NULL,NULL,"<div style=""font-size: 48px;"">D</div>",NULL,NULL,NULL,NULL,NULL
NULL,"presentation_trials_main","html-keyboard-response","81","172801","0.0-4.0-7.0-5.0","6233409","control","2025/8/8 11:32:35","2025/8/8 11:37:05",NULL,NULL,"<div style=""font-size: 48px;"">F</div>",NULL,NULL,NULL,NULL,NULL
NULL,NULL,"html-keyboard-response","82","173802","0.0-4.0-7.0-6.0","6233409","control","2025/8/8 11:32:35","2025/8/8 11:37:05",NULL,NULL,,NULL,NULL,NULL,NULL,NULL
NULL,"response_trials_main","html-keyboard-response","83","181823","0.0-4.0-7.0-7.0","6233409","control","2025/8/8 11:32:35","2025/8/8 11:37:05",NULL,NULL,NULL,NULL,"37BDFN","37BDFN","37BDFN","1"
NULL,"presentation_trials_main","html-keyboard-response","84","182825","0.0-4.0-8.0-0.0","6233409","control","2025/8/8 11:32:35","2025/8/8 11:37:05",NULL,NULL,"<div style=""font-size: 48px;"">E</div>",NULL,NULL,NULL,NULL,NULL
NULL,"presentation_trials_main","html-keyboard-response","85","183826","0.0-4.0-8.0-1.0","6233409","control","2025/8/8 11:32:35","2025/8/8 11:37:05",NULL,NULL,"<div style=""font-size: 48px;"">6</div>",NULL,NULL,NULL,NULL,NULL
NULL,"presentation_trials_main","html-keyboard-response","86","184827","0.0-4.0-8.0-2.0","6233409","control","2025/8/8 11:32:35","2025/8/8 11:37:05",NULL,NULL,"<div style=""font-size: 48px;"">1</div>",NULL,NULL,NULL,NULL,NULL
NULL,"presentation_trials_main","html-keyboard-response","87","185828","0.0-4.0-8.0-3.0","6233409","control","2025/8/8 11:32:35","2025/8/8 11:37:05",NULL,NULL,"<div style=""font-size: 48px;"">Q</div>",NULL,NULL,NULL,NULL,NULL
NULL,"presentation_trials_main","html-keyboard-response","88","186829","0.0-4.0-8.0-4.0","6233409","control","2025/8/8 11:32:35","2025/8/8 11:37:05",NULL,NULL,"<div style=""font-size: 48px;"">H</div>",NULL,NULL,NULL,NULL,NULL
NULL,"presentation_trials_main","html-keyboard-response","89","187831","0.0-4.0-8.0-5.0","6233409","control","2025/8/8 11:32:35","2025/8/8 11:37:05",NULL,NULL,"<div style=""font-size: 48px;"">8</div>",NULL,NULL,NULL,NULL,NULL
NULL,NULL,"html-keyboard-response","90","188832","0.0-4.0-8.0-6.0","6233409","control","2025/8/8 11:32:35","2025/8/8 11:37:05",NULL,NULL,,NULL,NULL,NULL,NULL,NULL
NULL,"response_trials_main","html-keyboard-response","91","199855","0.0-4.0-8.0-7.0","6233409","control","2025/8/8 11:32:35","2025/8/8 11:37:05",NULL,NULL,NULL,NULL,"168EHQ","168EHQ","168EHQ","1"
NULL,"presentation_trials_main","html-keyboard-response","92","200857","0.0-4.0-9.0-0.0","6233409","control","2025/8/8 11:32:35","2025/8/8 11:37:05",NULL,NULL,"<div style=""font-size: 48px;"">C</div>",NULL,NULL,NULL,NULL,NULL
NULL,"presentation_trials_main","html-keyboard-response","93","201857","0.0-4.0-9.0-1.0","6233409","control","2025/8/8 11:32:35","2025/8/8 11:37:05",NULL,NULL,"<div style=""font-size: 48px;"">4</div>",NULL,NULL,NULL,NULL,NULL
NULL,"presentation_trials_main","html-keyboard-response","94","202859","0.0-4.0-9.0-2.0","6233409","control","2025/8/8 11:32:35","2025/8/8 11:37:05",NULL,NULL,"<div style=""font-size: 48px;"">T</div>",NULL,NULL,NULL,NULL,NULL
NULL,"presentation_trials_main","html-keyboard-response","95","203874","0.0-4.0-9.0-3.0","6233409","control","2025/8/8 11:32:35","2025/8/8 11:37:05",NULL,NULL,"<div style=""font-size: 48px;"">K</div>",NULL,NULL,NULL,NULL,NULL
NULL,"presentation_trials_main","html-keyboard-response","96","204875","0.0-4.0-9.0-4.0","6233409","control","2025/8/8 11:32:35","2025/8/8 11:37:05",NULL,NULL,"<div style=""font-size: 48px;"">2</div>",NULL,NULL,NULL,NULL,NULL
NULL,"presentation_trials_main","html-keyboard-response","97","205876","0.0-4.0-9.0-5.0","6233409","control","2025/8/8 11:32:35","2025/8/8 11:37:05",NULL,NULL,"<div style=""font-size: 48px;"">A</div>",NULL,NULL,NULL,NULL,NULL
NULL,"presentation_trials_main","html-keyboard-response","98","206878","0.0-4.0-9.0-6.0","6233409","control","2025/8/8 11:32:35","2025/8/8 11:37:05",NULL,NULL,"<div style=""font-size: 48px;"">9</div>",NULL,NULL,NULL,NULL,NULL
NULL,NULL,"html-keyboard-response","99","207879","0.0-4.0-9.0-7.0","6233409","control","2025/8/8 11:32:35","2025/8/8 11:37:05",NULL,NULL,,NULL,NULL,NULL,NULL,NULL
NULL,"response_trials_main","html-keyboard-response","100","215375","0.0-4.0-9.0-8.0","6233409","control","2025/8/8 11:32:35","2025/8/8 11:37:05",NULL,NULL,NULL,NULL,"249ACKT","249ACKT","249ACKT","1"
NULL,"presentation_trials_main","html-keyboard-response","101","216377","0.0-4.0-10.0-0.0","6233409","control","2025/8/8 11:32:35","2025/8/8 11:37:05",NULL,NULL,"<div style=""font-size: 48px;"">6</div>",NULL,NULL,NULL,NULL,NULL
NULL,"presentation_trials_main","html-keyboard-response","102","217379","0.0-4.0-10.0-1.0","6233409","control","2025/8/8 11:32:35","2025/8/8 11:37:05",NULL,NULL,"<div style=""font-size: 48px;"">Z</div>",NULL,NULL,NULL,NULL,NULL
NULL,"presentation_trials_main","html-keyboard-response","103","218380","0.0-4.0-10.0-2.0","6233409","control","2025/8/8 11:32:35","2025/8/8 11:37:05",NULL,NULL,"<div style=""font-size: 48px;"">R</div>",NULL,NULL,NULL,NULL,NULL
NULL,"presentation_trials_main","html-keyboard-response","104","219389","0.0-4.0-10.0-3.0","6233409","control","2025/8/8 11:32:35","2025/8/8 11:37:05",NULL,NULL,"<div style=""font-size: 48px;"">3</div>",NULL,NULL,NULL,NULL,NULL
NULL,"presentation_trials_main","html-keyboard-response","105","220391","0.0-4.0-10.0-4.0","6233409","control","2025/8/8 11:32:35","2025/8/8 11:37:05",NULL,NULL,"<div style=""font-size: 48px;"">B</div>",NULL,NULL,NULL,NULL,NULL
NULL,"presentation_trials_main","html-keyboard-response","106","221392","0.0-4.0-10.0-5.0","6233409","control","2025/8/8 11:32:35","2025/8/8 11:37:05",NULL,NULL,"<div style=""font-size: 48px;"">J</div>",NULL,NULL,NULL,NULL,NULL
NULL,"presentation_trials_main","html-keyboard-response","107","222394","0.0-4.0-10.0-6.0","6233409","control","2025/8/8 11:32:35","2025/8/8 11:37:05",NULL,NULL,"<div style=""font-size: 48px;"">M</div>",NULL,NULL,NULL,NULL,NULL
NULL,NULL,"html-keyboard-response","108","223395","0.0-4.0-10.0-7.0","6233409","control","2025/8/8 11:32:35","2025/8/8 11:37:05",NULL,NULL,,NULL,NULL,NULL,NULL,NULL
NULL,"response_trials_main","html-keyboard-response","109","240679","0.0-4.0-10.0-8.0","6233409","control","2025/8/8 11:32:35","2025/8/8 11:37:05",NULL,NULL,NULL,NULL,"36BJMRZ","36BJMRZ","36BJMRZ","1"
NULL,"presentation_trials_main","html-keyboard-response","110","241681","0.0-4.0-11.0-0.0","6233409","control","2025/8/8 11:32:35","2025/8/8 11:37:05",NULL,NULL,"<div style=""font-size: 48px;"">L</div>",NULL,NULL,NULL,NULL,NULL
NULL,"presentation_trials_main","html-keyboard-response","111","242682","0.0-4.0-11.0-1.0","6233409","control","2025/8/8 11:32:35","2025/8/8 11:37:05",NULL,NULL,"<div style=""font-size: 48px;"">5</div>",NULL,NULL,NULL,NULL,NULL
NULL,"presentation_trials_main","html-keyboard-response","112","243683","0.0-4.0-11.0-2.0","6233409","control","2025/8/8 11:32:35","2025/8/8 11:37:05",NULL,NULL,"<div style=""font-size: 48px;"">1</div>",NULL,NULL,NULL,NULL,NULL
NULL,"presentation_trials_main","html-keyboard-response","113","244684","0.0-4.0-11.0-3.0","6233409","control","2025/8/8 11:32:35","2025/8/8 11:37:05",NULL,NULL,"<div style=""font-size: 48px;"">G</div>",NULL,NULL,NULL,NULL,NULL
NULL,"presentation_trials_main","html-keyboard-response","114","245686","0.0-4.0-11.0-4.0","6233409","control","2025/8/8 11:32:35","2025/8/8 11:37:05",NULL,NULL,"<div style=""font-size: 48px;"">X</div>",NULL,NULL,NULL,NULL,NULL
NULL,"presentation_trials_main","html-keyboard-response","115","246688","0.0-4.0-11.0-5.0","6233409","control","2025/8/8 11:32:35","2025/8/8 11:37:05",NULL,NULL,"<div style=""font-size: 48px;"">D</div>",NULL,NULL,NULL,NULL,NULL
NULL,"presentation_trials_main","html-keyboard-response","116","247689","0.0-4.0-11.0-6.0","6233409","control","2025/8/8 11:32:35","2025/8/8 11:37:05",NULL,NULL,"<div style=""font-size: 48px;"">7</div>",NULL,NULL,NULL,NULL,NULL
NULL,NULL,"html-keyboard-response","117","248690","0.0-4.0-11.0-7.0","6233409","control","2025/8/8 11:32:35","2025/8/8 11:37:05",NULL,NULL,,NULL,NULL,NULL,NULL,NULL
NULL,"response_trials_main","html-keyboard-response","118","266639","0.0-4.0-11.0-8.0","6233409","control","2025/8/8 11:32:35","2025/8/8 11:37:05",NULL,NULL,NULL,NULL,"157DGLX","157DGLX","157DGLX","1"
NULL,"debrief","html-keyboard-response","119","269559","0.0-5.0","6233409","control","2025/8/8 11:32:35","2025/8/8 11:37:05",NULL,"2920","<p style='text-algin:left'>これで事前課題は終了になります。</p><p style='text-algin:left'>次に、文章産出課題の説明に移ります。</p><p style='text-algin:left'>準備ができたらスペースキーを押して、文章産出課題に進んでください。</p>"," ",NULL,NULL,NULL,NULL
"1","FullScreen","fullscreen","0","3589","0.0-0.0","5398551","control","2025/8/8 11:31:16","2025/8/8 11:37:39",NULL,NULL,NULL,NULL,NULL,NULL,NULL,NULL
NULL,"practice_task_inst_tl","instructions","1","36858","0.0-1.0","5398551","control","2025/8/8 11:31:16","2025/8/8 11:37:39","Array","33269",NULL,NULL,NULL,NULL,NULL,NULL
NULL,"presentation_trials_practice","html-keyboard-response","2","37859","0.0-2.0-0.0-0.0","5398551","control","2025/8/8 11:31:16","2025/8/8 11:37:39",NULL,NULL,"<div style=""font-size: 48px;"">C</div>",NULL,NULL,NULL,NULL,NULL
NULL,"presentation_trials_practice","html-keyboard-response","3","38860","0.0-2.0-0.0-1.0","5398551","control","2025/8/8 11:31:16","2025/8/8 11:37:39",NULL,NULL,"<div style=""font-size: 48px;"">2</div>",NULL,NULL,NULL,NULL,NULL
NULL,"presentation_trials_practice","html-keyboard-response","4","39862","0.0-2.0-0.0-2.0","5398551","control","2025/8/8 11:31:16","2025/8/8 11:37:39",NULL,NULL,"<div style=""font-size: 48px;"">A</div>",NULL,NULL,NULL,NULL,NULL
NULL,NULL,"html-keyboard-response","5","40863","0.0-2.0-0.0-3.0","5398551","control","2025/8/8 11:31:16","2025/8/8 11:37:39",NULL,NULL,,NULL,NULL,NULL,NULL,NULL
NULL,"response_trials_practice","html-keyboard-response","6","49669","0.0-2.0-0.0-4.0","5398551","control","2025/8/8 11:31:16","2025/8/8 11:37:39",NULL,NULL,NULL,NULL,"2AC","2AC","2AC","1"
NULL,NULL,"html-keyboard-response","7","51670","0.0-2.0-0.0-5.0","5398551","control","2025/8/8 11:31:16","2025/8/8 11:37:39",NULL,NULL,"<p style='color:green; font-size: 48px;'>正解です！</p>",NULL,NULL,NULL,NULL,NULL
NULL,"presentation_trials_practice","html-keyboard-response","8","52671","0.0-2.0-1.0-0.0","5398551","control","2025/8/8 11:31:16","2025/8/8 11:37:39",NULL,NULL,"<div style=""font-size: 48px;"">B</div>",NULL,NULL,NULL,NULL,NULL
NULL,"presentation_trials_practice","html-keyboard-response","9","53672","0.0-2.0-1.0-1.0","5398551","control","2025/8/8 11:31:16","2025/8/8 11:37:39",NULL,NULL,"<div style=""font-size: 48px;"">5</div>",NULL,NULL,NULL,NULL,NULL
NULL,"presentation_trials_practice","html-keyboard-response","10","54684","0.0-2.0-1.0-2.0","5398551","control","2025/8/8 11:31:16","2025/8/8 11:37:39",NULL,NULL,"<div style=""font-size: 48px;"">D</div>",NULL,NULL,NULL,NULL,NULL
NULL,NULL,"html-keyboard-response","11","55686","0.0-2.0-1.0-3.0","5398551","control","2025/8/8 11:31:16","2025/8/8 11:37:39",NULL,NULL,,NULL,NULL,NULL,NULL,NULL
NULL,"response_trials_practice","html-keyboard-response","12","60800","0.0-2.0-1.0-4.0","5398551","control","2025/8/8 11:31:16","2025/8/8 11:37:39",NULL,NULL,NULL,NULL,"5BD","5BD","5BD","1"
NULL,NULL,"html-keyboard-response","13","62801","0.0-2.0-1.0-5.0","5398551","control","2025/8/8 11:31:16","2025/8/8 11:37:39",NULL,NULL,"<p style='color:green; font-size: 48px;'>正解です！</p>",NULL,NULL,NULL,NULL,NULL
NULL,"presentation_trials_practice","html-keyboard-response","14","63802","0.0-2.0-2.0-0.0","5398551","control","2025/8/8 11:31:16","2025/8/8 11:37:39",NULL,NULL,"<div style=""font-size: 48px;"">1</div>",NULL,NULL,NULL,NULL,NULL
NULL,"presentation_trials_practice","html-keyboard-response","15","64804","0.0-2.0-2.0-1.0","5398551","control","2025/8/8 11:31:16","2025/8/8 11:37:39",NULL,NULL,"<div style=""font-size: 48px;"">G</div>",NULL,NULL,NULL,NULL,NULL
NULL,"presentation_trials_practice","html-keyboard-response","16","65805","0.0-2.0-2.0-2.0","5398551","control","2025/8/8 11:31:16","2025/8/8 11:37:39",NULL,NULL,"<div style=""font-size: 48px;"">C</div>",NULL,NULL,NULL,NULL,NULL
NULL,"presentation_trials_practice","html-keyboard-response","17","66807","0.0-2.0-2.0-3.0","5398551","control","2025/8/8 11:31:16","2025/8/8 11:37:39",NULL,NULL,"<div style=""font-size: 48px;"">7</div>",NULL,NULL,NULL,NULL,NULL
NULL,NULL,"html-keyboard-response","18","67808","0.0-2.0-2.0-4.0","5398551","control","2025/8/8 11:31:16","2025/8/8 11:37:39",NULL,NULL,,NULL,NULL,NULL,NULL,NULL
NULL,"response_trials_practice","html-keyboard-response","19","72698","0.0-2.0-2.0-5.0","5398551","control","2025/8/8 11:31:16","2025/8/8 11:37:39",NULL,NULL,NULL,NULL,"17CG","17CG","17CG","1"
NULL,NULL,"html-keyboard-response","20","74699","0.0-2.0-2.0-6.0","5398551","control","2025/8/8 11:31:16","2025/8/8 11:37:39",NULL,NULL,"<p style='color:green; font-size: 48px;'>正解です！</p>",NULL,NULL,NULL,NULL,NULL
NULL,"presentation_trials_practice","html-keyboard-response","21","75701","0.0-2.0-3.0-0.0","5398551","control","2025/8/8 11:31:16","2025/8/8 11:37:39",NULL,NULL,"<div style=""font-size: 48px;"">F</div>",NULL,NULL,NULL,NULL,NULL
NULL,"presentation_trials_practice","html-keyboard-response","22","76704","0.0-2.0-3.0-1.0","5398551","control","2025/8/8 11:31:16","2025/8/8 11:37:39",NULL,NULL,"<div style=""font-size: 48px;"">6</div>",NULL,NULL,NULL,NULL,NULL
NULL,"presentation_trials_practice","html-keyboard-response","23","77705","0.0-2.0-3.0-2.0","5398551","control","2025/8/8 11:31:16","2025/8/8 11:37:39",NULL,NULL,"<div style=""font-size: 48px;"">A</div>",NULL,NULL,NULL,NULL,NULL
NULL,"presentation_trials_practice","html-keyboard-response","24","78706","0.0-2.0-3.0-3.0","5398551","control","2025/8/8 11:31:16","2025/8/8 11:37:39",NULL,NULL,"<div style=""font-size: 48px;"">2</div>",NULL,NULL,NULL,NULL,NULL
NULL,NULL,"html-keyboard-response","25","79708","0.0-2.0-3.0-4.0","5398551","control","2025/8/8 11:31:16","2025/8/8 11:37:39",NULL,NULL,,NULL,NULL,NULL,NULL,NULL
NULL,"response_trials_practice","html-keyboard-response","26","83675","0.0-2.0-3.0-5.0","5398551","control","2025/8/8 11:31:16","2025/8/8 11:37:39",NULL,NULL,NULL,NULL,"26AF","26AF","26AF","1"
NULL,NULL,"html-keyboard-response","27","85676","0.0-2.0-3.0-6.0","5398551","control","2025/8/8 11:31:16","2025/8/8 11:37:39",NULL,NULL,"<p style='color:green; font-size: 48px;'>正解です！</p>",NULL,NULL,NULL,NULL,NULL
NULL,"main_task_inst_tl","instructions","28","89155","0.0-3.0","5398551","control","2025/8/8 11:31:16","2025/8/8 11:37:39","Array","3478",NULL,NULL,NULL,NULL,NULL,NULL
NULL,"presentation_trials_main","html-keyboard-response","29","90157","0.0-4.0-0.0-0.0","5398551","control","2025/8/8 11:31:16","2025/8/8 11:37:39",NULL,NULL,"<div style=""font-size: 48px;"">D</div>",NULL,NULL,NULL,NULL,NULL
NULL,"presentation_trials_main","html-keyboard-response","30","91163","0.0-4.0-0.0-1.0","5398551","control","2025/8/8 11:31:16","2025/8/8 11:37:39",NULL,NULL,"<div style=""font-size: 48px;"">3</div>",NULL,NULL,NULL,NULL,NULL
NULL,"presentation_trials_main","html-keyboard-response","31","92178","0.0-4.0-0.0-2.0","5398551","control","2025/8/8 11:31:16","2025/8/8 11:37:39",NULL,NULL,"<div style=""font-size: 48px;"">B</div>",NULL,NULL,NULL,NULL,NULL
NULL,"presentation_trials_main","html-keyboard-response","32","93179","0.0-4.0-0.0-3.0","5398551","control","2025/8/8 11:31:16","2025/8/8 11:37:39",NULL,NULL,"<div style=""font-size: 48px;"">1</div>",NULL,NULL,NULL,NULL,NULL
NULL,NULL,"html-keyboard-response","33","94180","0.0-4.0-0.0-4.0","5398551","control","2025/8/8 11:31:16","2025/8/8 11:37:39",NULL,NULL,,NULL,NULL,NULL,NULL,NULL
NULL,"response_trials_main","html-keyboard-response","34","98912","0.0-4.0-0.0-5.0","5398551","control","2025/8/8 11:31:16","2025/8/8 11:37:39",NULL,NULL,NULL,NULL,"13BD","13BD","13BD","1"
NULL,"presentation_trials_main","html-keyboard-response","35","99913","0.0-4.0-1.0-0.0","5398551","control","2025/8/8 11:31:16","2025/8/8 11:37:39",NULL,NULL,"<div style=""font-size: 48px;"">A</div>",NULL,NULL,NULL,NULL,NULL
NULL,"presentation_trials_main","html-keyboard-response","36","100914","0.0-4.0-1.0-1.0","5398551","control","2025/8/8 11:31:16","2025/8/8 11:37:39",NULL,NULL,"<div style=""font-size: 48px;"">7</div>",NULL,NULL,NULL,NULL,NULL
NULL,"presentation_trials_main","html-keyboard-response","37","101918","0.0-4.0-1.0-2.0","5398551","control","2025/8/8 11:31:16","2025/8/8 11:37:39",NULL,NULL,"<div style=""font-size: 48px;"">4</div>",NULL,NULL,NULL,NULL,NULL
NULL,"presentation_trials_main","html-keyboard-response","38","102919","0.0-4.0-1.0-3.0","5398551","control","2025/8/8 11:31:16","2025/8/8 11:37:39",NULL,NULL,"<div style=""font-size: 48px;"">F</div>",NULL,NULL,NULL,NULL,NULL
NULL,NULL,"html-keyboard-response","39","103921","0.0-4.0-1.0-4.0","5398551","control","2025/8/8 11:31:16","2025/8/8 11:37:39",NULL,NULL,,NULL,NULL,NULL,NULL,NULL
NULL,"response_trials_main","html-keyboard-response","40","112081","0.0-4.0-1.0-5.0","5398551","control","2025/8/8 11:31:16","2025/8/8 11:37:39",NULL,NULL,NULL,NULL,"47AF","47AF","47AF","1"
NULL,"presentation_trials_main","html-keyboard-response","41","113083","0.0-4.0-2.0-0.0","5398551","control","2025/8/8 11:31:16","2025/8/8 11:37:39",NULL,NULL,"<div style=""font-size: 48px;"">2</div>",NULL,NULL,NULL,NULL,NULL
NULL,"presentation_trials_main","html-keyboard-response","42","114084","0.0-4.0-2.0-1.0","5398551","control","2025/8/8 11:31:16","2025/8/8 11:37:39",NULL,NULL,"<div style=""font-size: 48px;"">G</div>",NULL,NULL,NULL,NULL,NULL
NULL,"presentation_trials_main","html-keyboard-response","43","115084","0.0-4.0-2.0-2.0","5398551","control","2025/8/8 11:31:16","2025/8/8 11:37:39",NULL,NULL,"<div style=""font-size: 48px;"">E</div>",NULL,NULL,NULL,NULL,NULL
NULL,"presentation_trials_main","html-keyboard-response","44","116086","0.0-4.0-2.0-3.0","5398551","control","2025/8/8 11:31:16","2025/8/8 11:37:39",NULL,NULL,"<div style=""font-size: 48px;"">5</div>",NULL,NULL,NULL,NULL,NULL
NULL,NULL,"html-keyboard-response","45","117086","0.0-4.0-2.0-4.0","5398551","control","2025/8/8 11:31:16","2025/8/8 11:37:39",NULL,NULL,,NULL,NULL,NULL,NULL,NULL
NULL,"response_trials_main","html-keyboard-response","46","124790","0.0-4.0-2.0-5.0","5398551","control","2025/8/8 11:31:16","2025/8/8 11:37:39",NULL,NULL,NULL,NULL,"25EG","25EG","25EG","1"
NULL,"presentation_trials_main","html-keyboard-response","47","125791","0.0-4.0-3.0-0.0","5398551","control","2025/8/8 11:31:16","2025/8/8 11:37:39",NULL,NULL,"<div style=""font-size: 48px;"">D</div>",NULL,NULL,NULL,NULL,NULL
NULL,"presentation_trials_main","html-keyboard-response","48","126792","0.0-4.0-3.0-1.0","5398551","control","2025/8/8 11:31:16","2025/8/8 11:37:39",NULL,NULL,"<div style=""font-size: 48px;"">3</div>",NULL,NULL,NULL,NULL,NULL
NULL,"presentation_trials_main","html-keyboard-response","49","127805","0.0-4.0-3.0-2.0","5398551","control","2025/8/8 11:31:16","2025/8/8 11:37:39",NULL,NULL,"<div style=""font-size: 48px;"">B</div>",NULL,NULL,NULL,NULL,NULL
NULL,"presentation_trials_main","html-keyboard-response","50","128805","0.0-4.0-3.0-3.0","5398551","control","2025/8/8 11:31:16","2025/8/8 11:37:39",NULL,NULL,"<div style=""font-size: 48px;"">7</div>",NULL,NULL,NULL,NULL,NULL
NULL,"presentation_trials_main","html-keyboard-response","51","129808","0.0-4.0-3.0-4.0","5398551","control","2025/8/8 11:31:16","2025/8/8 11:37:39",NULL,NULL,"<div style=""font-size: 48px;"">A</div>",NULL,NULL,NULL,NULL,NULL
NULL,NULL,"html-keyboard-response","52","130809","0.0-4.0-3.0-5.0","5398551","control","2025/8/8 11:31:16","2025/8/8 11:37:39",NULL,NULL,,NULL,NULL,NULL,NULL,NULL
NULL,"response_trials_main","html-keyboard-response","53","141897","0.0-4.0-3.0-6.0","5398551","control","2025/8/8 11:31:16","2025/8/8 11:37:39",NULL,NULL,NULL,NULL,"37ABD","37ABD","37ABD","1"
NULL,"presentation_trials_main","html-keyboard-response","54","142899","0.0-4.0-4.0-0.0","5398551","control","2025/8/8 11:31:16","2025/8/8 11:37:39",NULL,NULL,"<div style=""font-size: 48px;"">F</div>",NULL,NULL,NULL,NULL,NULL
NULL,"presentation_trials_main","html-keyboard-response","55","143900","0.0-4.0-4.0-1.0","5398551","control","2025/8/8 11:31:16","2025/8/8 11:37:39",NULL,NULL,"<div style=""font-size: 48px;"">2</div>",NULL,NULL,NULL,NULL,NULL
NULL,"presentation_trials_main","html-keyboard-response","56","144901","0.0-4.0-4.0-2.0","5398551","control","2025/8/8 11:31:16","2025/8/8 11:37:39",NULL,NULL,"<div style=""font-size: 48px;"">K</div>",NULL,NULL,NULL,NULL,NULL
NULL,"presentation_trials_main","html-keyboard-response","57","145903","0.0-4.0-4.0-3.0","5398551","control","2025/8/8 11:31:16","2025/8/8 11:37:39",NULL,NULL,"<div style=""font-size: 48px;"">5</div>",NULL,NULL,NULL,NULL,NULL
NULL,"presentation_trials_main","html-keyboard-response","58","146904","0.0-4.0-4.0-4.0","5398551","control","2025/8/8 11:31:16","2025/8/8 11:37:39",NULL,NULL,"<div style=""font-size: 48px;"">C</div>",NULL,NULL,NULL,NULL,NULL
NULL,NULL,"html-keyboard-response","59","147905","0.0-4.0-4.0-5.0","5398551","control","2025/8/8 11:31:16","2025/8/8 11:37:39",NULL,NULL,,NULL,NULL,NULL,NULL,NULL
NULL,"response_trials_main","html-keyboard-response","60","177757","0.0-4.0-4.0-6.0","5398551","control","2025/8/8 11:31:16","2025/8/8 11:37:39",NULL,NULL,NULL,NULL,"25CFK","25CFK","25CFK","1"
NULL,"presentation_trials_main","html-keyboard-response","61","178758","0.0-4.0-5.0-0.0","5398551","control","2025/8/8 11:31:16","2025/8/8 11:37:39",NULL,NULL,"<div style=""font-size: 48px;"">4</div>",NULL,NULL,NULL,NULL,NULL
NULL,"presentation_trials_main","html-keyboard-response","62","179759","0.0-4.0-5.0-1.0","5398551","control","2025/8/8 11:31:16","2025/8/8 11:37:39",NULL,NULL,"<div style=""font-size: 48px;"">M</div>",NULL,NULL,NULL,NULL,NULL
NULL,"presentation_trials_main","html-keyboard-response","63","180761","0.0-4.0-5.0-2.0","5398551","control","2025/8/8 11:31:16","2025/8/8 11:37:39",NULL,NULL,"<div style=""font-size: 48px;"">H</div>",NULL,NULL,NULL,NULL,NULL
NULL,"presentation_trials_main","html-keyboard-response","64","181763","0.0-4.0-5.0-3.0","5398551","control","2025/8/8 11:31:16","2025/8/8 11:37:39",NULL,NULL,"<div style=""font-size: 48px;"">1</div>",NULL,NULL,NULL,NULL,NULL
NULL,"presentation_trials_main","html-keyboard-response","65","182764","0.0-4.0-5.0-4.0","5398551","control","2025/8/8 11:31:16","2025/8/8 11:37:39",NULL,NULL,"<div style=""font-size: 48px;"">E</div>",NULL,NULL,NULL,NULL,NULL
NULL,NULL,"html-keyboard-response","66","183764","0.0-4.0-5.0-5.0","5398551","control","2025/8/8 11:31:16","2025/8/8 11:37:39",NULL,NULL,,NULL,NULL,NULL,NULL,NULL
NULL,"response_trials_main","html-keyboard-response","67","209998","0.0-4.0-5.0-6.0","5398551","control","2025/8/8 11:31:16","2025/8/8 11:37:39",NULL,NULL,NULL,NULL,"14EHM","14EHM","14EHM","1"
NULL,"presentation_trials_main","html-keyboard-response","68","211000","0.0-4.0-6.0-0.0","5398551","control","2025/8/8 11:31:16","2025/8/8 11:37:39",NULL,NULL,"<div style=""font-size: 48px;"">G</div>",NULL,NULL,NULL,NULL,NULL
NULL,"presentation_trials_main","html-keyboard-response","69","212001","0.0-4.0-6.0-1.0","5398551","control","2025/8/8 11:31:16","2025/8/8 11:37:39",NULL,NULL,"<div style=""font-size: 48px;"">9</div>",NULL,NULL,NULL,NULL,NULL
NULL,"presentation_trials_main","html-keyboard-response","70","213003","0.0-4.0-6.0-2.0","5398551","control","2025/8/8 11:31:16","2025/8/8 11:37:39",NULL,NULL,"<div style=""font-size: 48px;"">2</div>",NULL,NULL,NULL,NULL,NULL
NULL,"presentation_trials_main","html-keyboard-response","71","214004","0.0-4.0-6.0-3.0","5398551","control","2025/8/8 11:31:16","2025/8/8 11:37:39",NULL,NULL,"<div style=""font-size: 48px;"">L</div>",NULL,NULL,NULL,NULL,NULL
NULL,"presentation_trials_main","html-keyboard-response","72","215005","0.0-4.0-6.0-4.0","5398551","control","2025/8/8 11:31:16","2025/8/8 11:37:39",NULL,NULL,"<div style=""font-size: 48px;"">A</div>",NULL,NULL,NULL,NULL,NULL
NULL,"presentation_trials_main","html-keyboard-response","73","216006","0.0-4.0-6.0-5.0","5398551","control","2025/8/8 11:31:16","2025/8/8 11:37:39",NULL,NULL,"<div style=""font-size: 48px;"">5</div>",NULL,NULL,NULL,NULL,NULL
NULL,NULL,"html-keyboard-response","74","217007","0.0-4.0-6.0-6.0","5398551","control","2025/8/8 11:31:16","2025/8/8 11:37:39",NULL,NULL,,NULL,NULL,NULL,NULL,NULL
NULL,"response_trials_main","html-keyboard-response","75","236901","0.0-4.0-6.0-7.0","5398551","control","2025/8/8 11:31:16","2025/8/8 11:37:39",NULL,NULL,NULL,NULL,"259AGL","259AGL","259AGL","1"
NULL,"presentation_trials_main","html-keyboard-response","76","237903","0.0-4.0-7.0-0.0","5398551","control","2025/8/8 11:31:16","2025/8/8 11:37:39",NULL,NULL,"<div style=""font-size: 48px;"">3</div>",NULL,NULL,NULL,NULL,NULL
NULL,"presentation_trials_main","html-keyboard-response","77","238904","0.0-4.0-7.0-1.0","5398551","control","2025/8/8 11:31:16","2025/8/8 11:37:39",NULL,NULL,"<div style=""font-size: 48px;"">B</div>",NULL,NULL,NULL,NULL,NULL
NULL,"presentation_trials_main","html-keyboard-response","78","239906","0.0-4.0-7.0-2.0","5398551","control","2025/8/8 11:31:16","2025/8/8 11:37:39",NULL,NULL,"<div style=""font-size: 48px;"">N</div>",NULL,NULL,NULL,NULL,NULL
NULL,"presentation_trials_main","html-keyboard-response","79","240907","0.0-4.0-7.0-3.0","5398551","control","2025/8/8 11:31:16","2025/8/8 11:37:39",NULL,NULL,"<div style=""font-size: 48px;"">7</div>",NULL,NULL,NULL,NULL,NULL
NULL,"presentation_trials_main","html-keyboard-response","80","241909","0.0-4.0-7.0-4.0","5398551","control","2025/8/8 11:31:16","2025/8/8 11:37:39",NULL,NULL,"<div style=""font-size: 48px;"">D</div>",NULL,NULL,NULL,NULL,NULL
NULL,"presentation_trials_main","html-keyboard-response","81","242911","0.0-4.0-7.0-5.0","5398551","control","2025/8/8 11:31:16","2025/8/8 11:37:39",NULL,NULL,"<div style=""font-size: 48px;"">F</div>",NULL,NULL,NULL,NULL,NULL
NULL,NULL,"html-keyboard-response","82","243912","0.0-4.0-7.0-6.0","5398551","control","2025/8/8 11:31:16","2025/8/8 11:37:39",NULL,NULL,,NULL,NULL,NULL,NULL,NULL
NULL,"response_trials_main","html-keyboard-response","83","263909","0.0-4.0-7.0-7.0","5398551","control","2025/8/8 11:31:16","2025/8/8 11:37:39",NULL,NULL,NULL,NULL,"37BDFN","37BDFN","37BDFN","1"
NULL,"presentation_trials_main","html-keyboard-response","84","264910","0.0-4.0-8.0-0.0","5398551","control","2025/8/8 11:31:16","2025/8/8 11:37:39",NULL,NULL,"<div style=""font-size: 48px;"">E</div>",NULL,NULL,NULL,NULL,NULL
NULL,"presentation_trials_main","html-keyboard-response","85","265912","0.0-4.0-8.0-1.0","5398551","control","2025/8/8 11:31:16","2025/8/8 11:37:39",NULL,NULL,"<div style=""font-size: 48px;"">6</div>",NULL,NULL,NULL,NULL,NULL
NULL,"presentation_trials_main","html-keyboard-response","86","266914","0.0-4.0-8.0-2.0","5398551","control","2025/8/8 11:31:16","2025/8/8 11:37:39",NULL,NULL,"<div style=""font-size: 48px;"">1</div>",NULL,NULL,NULL,NULL,NULL
NULL,"presentation_trials_main","html-keyboard-response","87","267915","0.0-4.0-8.0-3.0","5398551","control","2025/8/8 11:31:16","2025/8/8 11:37:39",NULL,NULL,"<div style=""font-size: 48px;"">Q</div>",NULL,NULL,NULL,NULL,NULL
NULL,"presentation_trials_main","html-keyboard-response","88","268915","0.0-4.0-8.0-4.0","5398551","control","2025/8/8 11:31:16","2025/8/8 11:37:39",NULL,NULL,"<div style=""font-size: 48px;"">H</div>",NULL,NULL,NULL,NULL,NULL
NULL,"presentation_trials_main","html-keyboard-response","89","269917","0.0-4.0-8.0-5.0","5398551","control","2025/8/8 11:31:16","2025/8/8 11:37:39",NULL,NULL,"<div style=""font-size: 48px;"">8</div>",NULL,NULL,NULL,NULL,NULL
NULL,NULL,"html-keyboard-response","90","270918","0.0-4.0-8.0-6.0","5398551","control","2025/8/8 11:31:16","2025/8/8 11:37:39",NULL,NULL,,NULL,NULL,NULL,NULL,NULL
NULL,"response_trials_main","html-keyboard-response","91","291714","0.0-4.0-8.0-7.0","5398551","control","2025/8/8 11:31:16","2025/8/8 11:37:39",NULL,NULL,NULL,NULL,"168EHQ","168EHQ","168EHQ","1"
NULL,"presentation_trials_main","html-keyboard-response","92","292715","0.0-4.0-9.0-0.0","5398551","control","2025/8/8 11:31:16","2025/8/8 11:37:39",NULL,NULL,"<div style=""font-size: 48px;"">C</div>",NULL,NULL,NULL,NULL,NULL
NULL,"presentation_trials_main","html-keyboard-response","93","293718","0.0-4.0-9.0-1.0","5398551","control","2025/8/8 11:31:16","2025/8/8 11:37:39",NULL,NULL,"<div style=""font-size: 48px;"">4</div>",NULL,NULL,NULL,NULL,NULL
NULL,"presentation_trials_main","html-keyboard-response","94","294719","0.0-4.0-9.0-2.0","5398551","control","2025/8/8 11:31:16","2025/8/8 11:37:39",NULL,NULL,"<div style=""font-size: 48px;"">T</div>",NULL,NULL,NULL,NULL,NULL
NULL,"presentation_trials_main","html-keyboard-response","95","295721","0.0-4.0-9.0-3.0","5398551","control","2025/8/8 11:31:16","2025/8/8 11:37:39",NULL,NULL,"<div style=""font-size: 48px;"">K</div>",NULL,NULL,NULL,NULL,NULL
NULL,"presentation_trials_main","html-keyboard-response","96","296723","0.0-4.0-9.0-4.0","5398551","control","2025/8/8 11:31:16","2025/8/8 11:37:39",NULL,NULL,"<div style=""font-size: 48px;"">2</div>",NULL,NULL,NULL,NULL,NULL
NULL,"presentation_trials_main","html-keyboard-response","97","297724","0.0-4.0-9.0-5.0","5398551","control","2025/8/8 11:31:16","2025/8/8 11:37:39",NULL,NULL,"<div style=""font-size: 48px;"">A</div>",NULL,NULL,NULL,NULL,NULL
NULL,"presentation_trials_main","html-keyboard-response","98","298726","0.0-4.0-9.0-6.0","5398551","control","2025/8/8 11:31:16","2025/8/8 11:37:39",NULL,NULL,"<div style=""font-size: 48px;"">9</div>",NULL,NULL,NULL,NULL,NULL
NULL,NULL,"html-keyboard-response","99","299727","0.0-4.0-9.0-7.0","5398551","control","2025/8/8 11:31:16","2025/8/8 11:37:39",NULL,NULL,,NULL,NULL,NULL,NULL,NULL
NULL,"response_trials_main","html-keyboard-response","100","321574","0.0-4.0-9.0-8.0","5398551","control","2025/8/8 11:31:16","2025/8/8 11:37:39",NULL,NULL,NULL,NULL,"249ACKT","249ACKT","249ACKT","1"
NULL,"presentation_trials_main","html-keyboard-response","101","322575","0.0-4.0-10.0-0.0","5398551","control","2025/8/8 11:31:16","2025/8/8 11:37:39",NULL,NULL,"<div style=""font-size: 48px;"">6</div>",NULL,NULL,NULL,NULL,NULL
NULL,"presentation_trials_main","html-keyboard-response","102","323577","0.0-4.0-10.0-1.0","5398551","control","2025/8/8 11:31:16","2025/8/8 11:37:39",NULL,NULL,"<div style=""font-size: 48px;"">Z</div>",NULL,NULL,NULL,NULL,NULL
NULL,"presentation_trials_main","html-keyboard-response","103","324578","0.0-4.0-10.0-2.0","5398551","control","2025/8/8 11:31:16","2025/8/8 11:37:39",NULL,NULL,"<div style=""font-size: 48px;"">R</div>",NULL,NULL,NULL,NULL,NULL
NULL,"presentation_trials_main","html-keyboard-response","104","325579","0.0-4.0-10.0-3.0","5398551","control","2025/8/8 11:31:16","2025/8/8 11:37:39",NULL,NULL,"<div style=""font-size: 48px;"">3</div>",NULL,NULL,NULL,NULL,NULL
NULL,"presentation_trials_main","html-keyboard-response","105","326581","0.0-4.0-10.0-4.0","5398551","control","2025/8/8 11:31:16","2025/8/8 11:37:39",NULL,NULL,"<div style=""font-size: 48px;"">B</div>",NULL,NULL,NULL,NULL,NULL
NULL,"presentation_trials_main","html-keyboard-response","106","327582","0.0-4.0-10.0-5.0","5398551","control","2025/8/8 11:31:16","2025/8/8 11:37:39",NULL,NULL,"<div style=""font-size: 48px;"">J</div>",NULL,NULL,NULL,NULL,NULL
NULL,"presentation_trials_main","html-keyboard-response","107","328584","0.0-4.0-10.0-6.0","5398551","control","2025/8/8 11:31:16","2025/8/8 11:37:39",NULL,NULL,"<div style=""font-size: 48px;"">M</div>",NULL,NULL,NULL,NULL,NULL
NULL,NULL,"html-keyboard-response","108","329585","0.0-4.0-10.0-7.0","5398551","control","2025/8/8 11:31:16","2025/8/8 11:37:39",NULL,NULL,,NULL,NULL,NULL,NULL,NULL
NULL,"response_trials_main","html-keyboard-response","109","351121","0.0-4.0-10.0-8.0","5398551","control","2025/8/8 11:31:16","2025/8/8 11:37:39",NULL,NULL,NULL,NULL,"36BJMRZ","36BJMRZ","36BJMRZ","1"
NULL,"presentation_trials_main","html-keyboard-response","110","352122","0.0-4.0-11.0-0.0","5398551","control","2025/8/8 11:31:16","2025/8/8 11:37:39",NULL,NULL,"<div style=""font-size: 48px;"">L</div>",NULL,NULL,NULL,NULL,NULL
NULL,"presentation_trials_main","html-keyboard-response","111","353124","0.0-4.0-11.0-1.0","5398551","control","2025/8/8 11:31:16","2025/8/8 11:37:39",NULL,NULL,"<div style=""font-size: 48px;"">5</div>",NULL,NULL,NULL,NULL,NULL
NULL,"presentation_trials_main","html-keyboard-response","112","354125","0.0-4.0-11.0-2.0","5398551","control","2025/8/8 11:31:16","2025/8/8 11:37:39",NULL,NULL,"<div style=""font-size: 48px;"">1</div>",NULL,NULL,NULL,NULL,NULL
NULL,"presentation_trials_main","html-keyboard-response","113","355134","0.0-4.0-11.0-3.0","5398551","control","2025/8/8 11:31:16","2025/8/8 11:37:39",NULL,NULL,"<div style=""font-size: 48px;"">G</div>",NULL,NULL,NULL,NULL,NULL
NULL,"presentation_trials_main","html-keyboard-response","114","356136","0.0-4.0-11.0-4.0","5398551","control","2025/8/8 11:31:16","2025/8/8 11:37:39",NULL,NULL,"<div style=""font-size: 48px;"">X</div>",NULL,NULL,NULL,NULL,NULL
NULL,"presentation_trials_main","html-keyboard-response","115","357138","0.0-4.0-11.0-5.0","5398551","control","2025/8/8 11:31:16","2025/8/8 11:37:39",NULL,NULL,"<div style=""font-size: 48px;"">D</div>",NULL,NULL,NULL,NULL,NULL
NULL,"presentation_trials_main","html-keyboard-response","116","358139","0.0-4.0-11.0-6.0","5398551","control","2025/8/8 11:31:16","2025/8/8 11:37:39",NULL,NULL,"<div style=""font-size: 48px;"">7</div>",NULL,NULL,NULL,NULL,NULL
NULL,NULL,"html-keyboard-response","117","359139","0.0-4.0-11.0-7.0","5398551","control","2025/8/8 11:31:16","2025/8/8 11:37:39",NULL,NULL,,NULL,NULL,NULL,NULL,NULL
NULL,"response_trials_main","html-keyboard-response","118","381333","0.0-4.0-11.0-8.0","5398551","control","2025/8/8 11:31:16","2025/8/8 11:37:39",NULL,NULL,NULL,NULL,"157DGLX","157DGLX","157DGLX","1"
NULL,"debrief","html-keyboard-response","119","383129","0.0-5.0","5398551","control","2025/8/8 11:31:16","2025/8/8 11:37:39",NULL,"1795","<p style='text-algin:left'>これで事前課題は終了になります。</p><p style='text-algin:left'>次に、文章産出課題の説明に移ります。</p><p style='text-algin:left'>準備ができたらスペースキーを押して、文章産出課題に進んでください。</p>"," ",NULL,NULL,NULL,NULL
"1","FullScreen","fullscreen","0","3676","0.0-0.0","3260097","control","2025/8/8 11:31:04","2025/8/8 11:37:47",NULL,NULL,NULL,NULL,NULL,NULL,NULL,NULL
NULL,"practice_task_inst_tl","instructions","1","21755","0.0-1.0","3260097","control","2025/8/8 11:31:04","2025/8/8 11:37:47","Array","18077",NULL,NULL,NULL,NULL,NULL,NULL
NULL,"presentation_trials_practice","html-keyboard-response","2","22760","0.0-2.0-0.0-0.0","3260097","control","2025/8/8 11:31:04","2025/8/8 11:37:47",NULL,NULL,"<div style=""font-size: 48px;"">C</div>",NULL,NULL,NULL,NULL,NULL
NULL,"presentation_trials_practice","html-keyboard-response","3","23766","0.0-2.0-0.0-1.0","3260097","control","2025/8/8 11:31:04","2025/8/8 11:37:47",NULL,NULL,"<div style=""font-size: 48px;"">2</div>",NULL,NULL,NULL,NULL,NULL
NULL,"presentation_trials_practice","html-keyboard-response","4","24782","0.0-2.0-0.0-2.0","3260097","control","2025/8/8 11:31:04","2025/8/8 11:37:47",NULL,NULL,"<div style=""font-size: 48px;"">A</div>",NULL,NULL,NULL,NULL,NULL
NULL,NULL,"html-keyboard-response","5","25800","0.0-2.0-0.0-3.0","3260097","control","2025/8/8 11:31:04","2025/8/8 11:37:47",NULL,NULL,,NULL,NULL,NULL,NULL,NULL
NULL,"response_trials_practice","html-keyboard-response","6","37198","0.0-2.0-0.0-4.0","3260097","control","2025/8/8 11:31:04","2025/8/8 11:37:47",NULL,NULL,NULL,NULL,"2AC","2AC","2AC","1"
NULL,NULL,"html-keyboard-response","7","39202","0.0-2.0-0.0-5.0","3260097","control","2025/8/8 11:31:04","2025/8/8 11:37:47",NULL,NULL,"<p style='color:green; font-size: 48px;'>正解です！</p>",NULL,NULL,NULL,NULL,NULL
NULL,"presentation_trials_practice","html-keyboard-response","8","40204","0.0-2.0-1.0-0.0","3260097","control","2025/8/8 11:31:04","2025/8/8 11:37:47",NULL,NULL,"<div style=""font-size: 48px;"">B</div>",NULL,NULL,NULL,NULL,NULL
NULL,"presentation_trials_practice","html-keyboard-response","9","41205","0.0-2.0-1.0-1.0","3260097","control","2025/8/8 11:31:04","2025/8/8 11:37:47",NULL,NULL,"<div style=""font-size: 48px;"">5</div>",NULL,NULL,NULL,NULL,NULL
NULL,"presentation_trials_practice","html-keyboard-response","10","42207","0.0-2.0-1.0-2.0","3260097","control","2025/8/8 11:31:04","2025/8/8 11:37:47",NULL,NULL,"<div style=""font-size: 48px;"">D</div>",NULL,NULL,NULL,NULL,NULL
NULL,NULL,"html-keyboard-response","11","43209","0.0-2.0-1.0-3.0","3260097","control","2025/8/8 11:31:04","2025/8/8 11:37:47",NULL,NULL,,NULL,NULL,NULL,NULL,NULL
NULL,"response_trials_practice","html-keyboard-response","12","48739","0.0-2.0-1.0-4.0","3260097","control","2025/8/8 11:31:04","2025/8/8 11:37:47",NULL,NULL,NULL,NULL,"5BD","5BD","5BD","1"
NULL,NULL,"html-keyboard-response","13","50740","0.0-2.0-1.0-5.0","3260097","control","2025/8/8 11:31:04","2025/8/8 11:37:47",NULL,NULL,"<p style='color:green; font-size: 48px;'>正解です！</p>",NULL,NULL,NULL,NULL,NULL
NULL,"presentation_trials_practice","html-keyboard-response","14","51743","0.0-2.0-2.0-0.0","3260097","control","2025/8/8 11:31:04","2025/8/8 11:37:47",NULL,NULL,"<div style=""font-size: 48px;"">1</div>",NULL,NULL,NULL,NULL,NULL
NULL,"presentation_trials_practice","html-keyboard-response","15","52745","0.0-2.0-2.0-1.0","3260097","control","2025/8/8 11:31:04","2025/8/8 11:37:47",NULL,NULL,"<div style=""font-size: 48px;"">G</div>",NULL,NULL,NULL,NULL,NULL
NULL,"presentation_trials_practice","html-keyboard-response","16","53746","0.0-2.0-2.0-2.0","3260097","control","2025/8/8 11:31:04","2025/8/8 11:37:47",NULL,NULL,"<div style=""font-size: 48px;"">C</div>",NULL,NULL,NULL,NULL,NULL
NULL,"presentation_trials_practice","html-keyboard-response","17","54748","0.0-2.0-2.0-3.0","3260097","control","2025/8/8 11:31:04","2025/8/8 11:37:47",NULL,NULL,"<div style=""font-size: 48px;"">7</div>",NULL,NULL,NULL,NULL,NULL
NULL,NULL,"html-keyboard-response","18","55750","0.0-2.0-2.0-4.0","3260097","control","2025/8/8 11:31:04","2025/8/8 11:37:47",NULL,NULL,,NULL,NULL,NULL,NULL,NULL
NULL,"response_trials_practice","html-keyboard-response","19","60507","0.0-2.0-2.0-5.0","3260097","control","2025/8/8 11:31:04","2025/8/8 11:37:47",NULL,NULL,NULL,NULL,"17CG","17CG","17CG","1"
NULL,NULL,"html-keyboard-response","20","62508","0.0-2.0-2.0-6.0","3260097","control","2025/8/8 11:31:04","2025/8/8 11:37:47",NULL,NULL,"<p style='color:green; font-size: 48px;'>正解です！</p>",NULL,NULL,NULL,NULL,NULL
NULL,"presentation_trials_practice","html-keyboard-response","21","63510","0.0-2.0-3.0-0.0","3260097","control","2025/8/8 11:31:04","2025/8/8 11:37:47",NULL,NULL,"<div style=""font-size: 48px;"">F</div>",NULL,NULL,NULL,NULL,NULL
NULL,"presentation_trials_practice","html-keyboard-response","22","64512","0.0-2.0-3.0-1.0","3260097","control","2025/8/8 11:31:04","2025/8/8 11:37:47",NULL,NULL,"<div style=""font-size: 48px;"">6</div>",NULL,NULL,NULL,NULL,NULL
NULL,"presentation_trials_practice","html-keyboard-response","23","65515","0.0-2.0-3.0-2.0","3260097","control","2025/8/8 11:31:04","2025/8/8 11:37:47",NULL,NULL,"<div style=""font-size: 48px;"">A</div>",NULL,NULL,NULL,NULL,NULL
NULL,"presentation_trials_practice","html-keyboard-response","24","66517","0.0-2.0-3.0-3.0","3260097","control","2025/8/8 11:31:04","2025/8/8 11:37:47",NULL,NULL,"<div style=""font-size: 48px;"">2</div>",NULL,NULL,NULL,NULL,NULL
NULL,NULL,"html-keyboard-response","25","67518","0.0-2.0-3.0-4.0","3260097","control","2025/8/8 11:31:04","2025/8/8 11:37:47",NULL,NULL,,NULL,NULL,NULL,NULL,NULL
NULL,"response_trials_practice","html-keyboard-response","26","72707","0.0-2.0-3.0-5.0","3260097","control","2025/8/8 11:31:04","2025/8/8 11:37:47",NULL,NULL,NULL,NULL,"26AF","26AF","26AF","1"
NULL,NULL,"html-keyboard-response","27","74709","0.0-2.0-3.0-6.0","3260097","control","2025/8/8 11:31:04","2025/8/8 11:37:47",NULL,NULL,"<p style='color:green; font-size: 48px;'>正解です！</p>",NULL,NULL,NULL,NULL,NULL
NULL,"main_task_inst_tl","instructions","28","79555","0.0-3.0","3260097","control","2025/8/8 11:31:04","2025/8/8 11:37:47","Array","4845",NULL,NULL,NULL,NULL,NULL,NULL
NULL,"presentation_trials_main","html-keyboard-response","29","80557","0.0-4.0-0.0-0.0","3260097","control","2025/8/8 11:31:04","2025/8/8 11:37:47",NULL,NULL,"<div style=""font-size: 48px;"">D</div>",NULL,NULL,NULL,NULL,NULL
NULL,"presentation_trials_main","html-keyboard-response","30","81559","0.0-4.0-0.0-1.0","3260097","control","2025/8/8 11:31:04","2025/8/8 11:37:47",NULL,NULL,"<div style=""font-size: 48px;"">3</div>",NULL,NULL,NULL,NULL,NULL
NULL,"presentation_trials_main","html-keyboard-response","31","82561","0.0-4.0-0.0-2.0","3260097","control","2025/8/8 11:31:04","2025/8/8 11:37:47",NULL,NULL,"<div style=""font-size: 48px;"">B</div>",NULL,NULL,NULL,NULL,NULL
NULL,"presentation_trials_main","html-keyboard-response","32","83564","0.0-4.0-0.0-3.0","3260097","control","2025/8/8 11:31:04","2025/8/8 11:37:47",NULL,NULL,"<div style=""font-size: 48px;"">1</div>",NULL,NULL,NULL,NULL,NULL
NULL,NULL,"html-keyboard-response","33","84566","0.0-4.0-0.0-4.0","3260097","control","2025/8/8 11:31:04","2025/8/8 11:37:47",NULL,NULL,,NULL,NULL,NULL,NULL,NULL
NULL,"response_trials_main","html-keyboard-response","34","91935","0.0-4.0-0.0-5.0","3260097","control","2025/8/8 11:31:04","2025/8/8 11:37:47",NULL,NULL,NULL,NULL,"13BD","13BD","13BD","1"
NULL,"presentation_trials_main","html-keyboard-response","35","92937","0.0-4.0-1.0-0.0","3260097","control","2025/8/8 11:31:04","2025/8/8 11:37:47",NULL,NULL,"<div style=""font-size: 48px;"">A</div>",NULL,NULL,NULL,NULL,NULL
NULL,"presentation_trials_main","html-keyboard-response","36","93938","0.0-4.0-1.0-1.0","3260097","control","2025/8/8 11:31:04","2025/8/8 11:37:47",NULL,NULL,"<div style=""font-size: 48px;"">7</div>",NULL,NULL,NULL,NULL,NULL
NULL,"presentation_trials_main","html-keyboard-response","37","94940","0.0-4.0-1.0-2.0","3260097","control","2025/8/8 11:31:04","2025/8/8 11:37:47",NULL,NULL,"<div style=""font-size: 48px;"">4</div>",NULL,NULL,NULL,NULL,NULL
NULL,"presentation_trials_main","html-keyboard-response","38","95942","0.0-4.0-1.0-3.0","3260097","control","2025/8/8 11:31:04","2025/8/8 11:37:47",NULL,NULL,"<div style=""font-size: 48px;"">F</div>",NULL,NULL,NULL,NULL,NULL
NULL,NULL,"html-keyboard-response","39","96944","0.0-4.0-1.0-4.0","3260097","control","2025/8/8 11:31:04","2025/8/8 11:37:47",NULL,NULL,,NULL,NULL,NULL,NULL,NULL
NULL,"response_trials_main","html-keyboard-response","40","101395","0.0-4.0-1.0-5.0","3260097","control","2025/8/8 11:31:04","2025/8/8 11:37:47",NULL,NULL,NULL,NULL,"47AF","47AF","47AF","1"
NULL,"presentation_trials_main","html-keyboard-response","41","102396","0.0-4.0-2.0-0.0","3260097","control","2025/8/8 11:31:04","2025/8/8 11:37:47",NULL,NULL,"<div style=""font-size: 48px;"">2</div>",NULL,NULL,NULL,NULL,NULL
NULL,"presentation_trials_main","html-keyboard-response","42","103398","0.0-4.0-2.0-1.0","3260097","control","2025/8/8 11:31:04","2025/8/8 11:37:47",NULL,NULL,"<div style=""font-size: 48px;"">G</div>",NULL,NULL,NULL,NULL,NULL
NULL,"presentation_trials_main","html-keyboard-response","43","104400","0.0-4.0-2.0-2.0","3260097","control","2025/8/8 11:31:04","2025/8/8 11:37:47",NULL,NULL,"<div style=""font-size: 48px;"">E</div>",NULL,NULL,NULL,NULL,NULL
NULL,"presentation_trials_main","html-keyboard-response","44","105402","0.0-4.0-2.0-3.0","3260097","control","2025/8/8 11:31:04","2025/8/8 11:37:47",NULL,NULL,"<div style=""font-size: 48px;"">5</div>",NULL,NULL,NULL,NULL,NULL
NULL,NULL,"html-keyboard-response","45","106404","0.0-4.0-2.0-4.0","3260097","control","2025/8/8 11:31:04","2025/8/8 11:37:47",NULL,NULL,,NULL,NULL,NULL,NULL,NULL
NULL,"response_trials_main","html-keyboard-response","46","112099","0.0-4.0-2.0-5.0","3260097","control","2025/8/8 11:31:04","2025/8/8 11:37:47",NULL,NULL,NULL,NULL,"25EG","25EG","25EG","1"
NULL,"presentation_trials_main","html-keyboard-response","47","113105","0.0-4.0-3.0-0.0","3260097","control","2025/8/8 11:31:04","2025/8/8 11:37:47",NULL,NULL,"<div style=""font-size: 48px;"">D</div>",NULL,NULL,NULL,NULL,NULL
NULL,"presentation_trials_main","html-keyboard-response","48","114107","0.0-4.0-3.0-1.0","3260097","control","2025/8/8 11:31:04","2025/8/8 11:37:47",NULL,NULL,"<div style=""font-size: 48px;"">3</div>",NULL,NULL,NULL,NULL,NULL
NULL,"presentation_trials_main","html-keyboard-response","49","115108","0.0-4.0-3.0-2.0","3260097","control","2025/8/8 11:31:04","2025/8/8 11:37:47",NULL,NULL,"<div style=""font-size: 48px;"">B</div>",NULL,NULL,NULL,NULL,NULL
NULL,"presentation_trials_main","html-keyboard-response","50","116110","0.0-4.0-3.0-3.0","3260097","control","2025/8/8 11:31:04","2025/8/8 11:37:47",NULL,NULL,"<div style=""font-size: 48px;"">7</div>",NULL,NULL,NULL,NULL,NULL
NULL,"presentation_trials_main","html-keyboard-response","51","117112","0.0-4.0-3.0-4.0","3260097","control","2025/8/8 11:31:04","2025/8/8 11:37:47",NULL,NULL,"<div style=""font-size: 48px;"">A</div>",NULL,NULL,NULL,NULL,NULL
NULL,NULL,"html-keyboard-response","52","118114","0.0-4.0-3.0-5.0","3260097","control","2025/8/8 11:31:04","2025/8/8 11:37:47",NULL,NULL,,NULL,NULL,NULL,NULL,NULL
NULL,"response_trials_main","html-keyboard-response","53","129063","0.0-4.0-3.0-6.0","3260097","control","2025/8/8 11:31:04","2025/8/8 11:37:47",NULL,NULL,NULL,NULL,"37ADG","37ADG","37ABD",
NULL,"presentation_trials_main","html-keyboard-response","54","130065","0.0-4.0-4.0-0.0","3260097","control","2025/8/8 11:31:04","2025/8/8 11:37:47",NULL,NULL,"<div style=""font-size: 48px;"">F</div>",NULL,NULL,NULL,NULL,NULL
NULL,"presentation_trials_main","html-keyboard-response","55","131067","0.0-4.0-4.0-1.0","3260097","control","2025/8/8 11:31:04","2025/8/8 11:37:47",NULL,NULL,"<div style=""font-size: 48px;"">2</div>",NULL,NULL,NULL,NULL,NULL
NULL,"presentation_trials_main","html-keyboard-response","56","132069","0.0-4.0-4.0-2.0","3260097","control","2025/8/8 11:31:04","2025/8/8 11:37:47",NULL,NULL,"<div style=""font-size: 48px;"">K</div>",NULL,NULL,NULL,NULL,NULL
NULL,"presentation_trials_main","html-keyboard-response","57","133071","0.0-4.0-4.0-3.0","3260097","control","2025/8/8 11:31:04","2025/8/8 11:37:47",NULL,NULL,"<div style=""font-size: 48px;"">5</div>",NULL,NULL,NULL,NULL,NULL
NULL,"presentation_trials_main","html-keyboard-response","58","134073","0.0-4.0-4.0-4.0","3260097","control","2025/8/8 11:31:04","2025/8/8 11:37:47",NULL,NULL,"<div style=""font-size: 48px;"">C</div>",NULL,NULL,NULL,NULL,NULL
NULL,NULL,"html-keyboard-response","59","135076","0.0-4.0-4.0-5.0","3260097","control","2025/8/8 11:31:04","2025/8/8 11:37:47",NULL,NULL,,NULL,NULL,NULL,NULL,NULL
NULL,"response_trials_main","html-keyboard-response","60","158655","0.0-4.0-4.0-6.0","3260097","control","2025/8/8 11:31:04","2025/8/8 11:37:47",NULL,NULL,NULL,NULL,"25CKF","25CKF","25CFK",
NULL,"presentation_trials_main","html-keyboard-response","61","159657","0.0-4.0-5.0-0.0","3260097","control","2025/8/8 11:31:04","2025/8/8 11:37:47",NULL,NULL,"<div style=""font-size: 48px;"">4</div>",NULL,NULL,NULL,NULL,NULL
NULL,"presentation_trials_main","html-keyboard-response","62","160660","0.0-4.0-5.0-1.0","3260097","control","2025/8/8 11:31:04","2025/8/8 11:37:47",NULL,NULL,"<div style=""font-size: 48px;"">M</div>",NULL,NULL,NULL,NULL,NULL
NULL,"presentation_trials_main","html-keyboard-response","63","161663","0.0-4.0-5.0-2.0","3260097","control","2025/8/8 11:31:04","2025/8/8 11:37:47",NULL,NULL,"<div style=""font-size: 48px;"">H</div>",NULL,NULL,NULL,NULL,NULL
NULL,"presentation_trials_main","html-keyboard-response","64","162665","0.0-4.0-5.0-3.0","3260097","control","2025/8/8 11:31:04","2025/8/8 11:37:47",NULL,NULL,"<div style=""font-size: 48px;"">1</div>",NULL,NULL,NULL,NULL,NULL
NULL,"presentation_trials_main","html-keyboard-response","65","163667","0.0-4.0-5.0-4.0","3260097","control","2025/8/8 11:31:04","2025/8/8 11:37:47",NULL,NULL,"<div style=""font-size: 48px;"">E</div>",NULL,NULL,NULL,NULL,NULL
NULL,NULL,"html-keyboard-response","66","164669","0.0-4.0-5.0-5.0","3260097","control","2025/8/8 11:31:04","2025/8/8 11:37:47",NULL,NULL,,NULL,NULL,NULL,NULL,NULL
NULL,"response_trials_main","html-keyboard-response","67","179508","0.0-4.0-5.0-6.0","3260097","control","2025/8/8 11:31:04","2025/8/8 11:37:47",NULL,NULL,NULL,NULL,"14EKM","14EKM","14EHM",
NULL,"presentation_trials_main","html-keyboard-response","68","180509","0.0-4.0-6.0-0.0","3260097","control","2025/8/8 11:31:04","2025/8/8 11:37:47",NULL,NULL,"<div style=""font-size: 48px;"">G</div>",NULL,NULL,NULL,NULL,NULL
NULL,"presentation_trials_main","html-keyboard-response","69","181510","0.0-4.0-6.0-1.0","3260097","control","2025/8/8 11:31:04","2025/8/8 11:37:47",NULL,NULL,"<div style=""font-size: 48px;"">9</div>",NULL,NULL,NULL,NULL,NULL
NULL,"presentation_trials_main","html-keyboard-response","70","182512","0.0-4.0-6.0-2.0","3260097","control","2025/8/8 11:31:04","2025/8/8 11:37:47",NULL,NULL,"<div style=""font-size: 48px;"">2</div>",NULL,NULL,NULL,NULL,NULL
NULL,"presentation_trials_main","html-keyboard-response","71","183514","0.0-4.0-6.0-3.0","3260097","control","2025/8/8 11:31:04","2025/8/8 11:37:47",NULL,NULL,"<div style=""font-size: 48px;"">L</div>",NULL,NULL,NULL,NULL,NULL
NULL,"presentation_trials_main","html-keyboard-response","72","184531","0.0-4.0-6.0-4.0","3260097","control","2025/8/8 11:31:04","2025/8/8 11:37:47",NULL,NULL,"<div style=""font-size: 48px;"">A</div>",NULL,NULL,NULL,NULL,NULL
NULL,"presentation_trials_main","html-keyboard-response","73","185534","0.0-4.0-6.0-5.0","3260097","control","2025/8/8 11:31:04","2025/8/8 11:37:47",NULL,NULL,"<div style=""font-size: 48px;"">5</div>",NULL,NULL,NULL,NULL,NULL
NULL,NULL,"html-keyboard-response","74","186535","0.0-4.0-6.0-6.0","3260097","control","2025/8/8 11:31:04","2025/8/8 11:37:47",NULL,NULL,,NULL,NULL,NULL,NULL,NULL
NULL,"response_trials_main","html-keyboard-response","75","232172","0.0-4.0-6.0-7.0","3260097","control","2025/8/8 11:31:04","2025/8/8 11:37:47",NULL,NULL,NULL,NULL,"129GM","129GM","259AGL",
NULL,"presentation_trials_main","html-keyboard-response","76","233174","0.0-4.0-7.0-0.0","3260097","control","2025/8/8 11:31:04","2025/8/8 11:37:47",NULL,NULL,"<div style=""font-size: 48px;"">3</div>",NULL,NULL,NULL,NULL,NULL
NULL,"presentation_trials_main","html-keyboard-response","77","234175","0.0-4.0-7.0-1.0","3260097","control","2025/8/8 11:31:04","2025/8/8 11:37:47",NULL,NULL,"<div style=""font-size: 48px;"">B</div>",NULL,NULL,NULL,NULL,NULL
NULL,"presentation_trials_main","html-keyboard-response","78","235178","0.0-4.0-7.0-2.0","3260097","control","2025/8/8 11:31:04","2025/8/8 11:37:47",NULL,NULL,"<div style=""font-size: 48px;"">N</div>",NULL,NULL,NULL,NULL,NULL
NULL,"presentation_trials_main","html-keyboard-response","79","236179","0.0-4.0-7.0-3.0","3260097","control","2025/8/8 11:31:04","2025/8/8 11:37:47",NULL,NULL,"<div style=""font-size: 48px;"">7</div>",NULL,NULL,NULL,NULL,NULL
NULL,"presentation_trials_main","html-keyboard-response","80","237182","0.0-4.0-7.0-4.0","3260097","control","2025/8/8 11:31:04","2025/8/8 11:37:47",NULL,NULL,"<div style=""font-size: 48px;"">D</div>",NULL,NULL,NULL,NULL,NULL
NULL,"presentation_trials_main","html-keyboard-response","81","238184","0.0-4.0-7.0-5.0","3260097","control","2025/8/8 11:31:04","2025/8/8 11:37:47",NULL,NULL,"<div style=""font-size: 48px;"">F</div>",NULL,NULL,NULL,NULL,NULL
NULL,NULL,"html-keyboard-response","82","239186","0.0-4.0-7.0-6.0","3260097","control","2025/8/8 11:31:04","2025/8/8 11:37:47",NULL,NULL,,NULL,NULL,NULL,NULL,NULL
NULL,"response_trials_main","html-keyboard-response","83","264252","0.0-4.0-7.0-7.0","3260097","control","2025/8/8 11:31:04","2025/8/8 11:37:47",NULL,NULL,NULL,NULL,"37BFN","37BFN","37BDFN",
NULL,"presentation_trials_main","html-keyboard-response","84","265254","0.0-4.0-8.0-0.0","3260097","control","2025/8/8 11:31:04","2025/8/8 11:37:47",NULL,NULL,"<div style=""font-size: 48px;"">E</div>",NULL,NULL,NULL,NULL,NULL
NULL,"presentation_trials_main","html-keyboard-response","85","266256","0.0-4.0-8.0-1.0","3260097","control","2025/8/8 11:31:04","2025/8/8 11:37:47",NULL,NULL,"<div style=""font-size: 48px;"">6</div>",NULL,NULL,NULL,NULL,NULL
NULL,"presentation_trials_main","html-keyboard-response","86","267257","0.0-4.0-8.0-2.0","3260097","control","2025/8/8 11:31:04","2025/8/8 11:37:47",NULL,NULL,"<div style=""font-size: 48px;"">1</div>",NULL,NULL,NULL,NULL,NULL
NULL,"presentation_trials_main","html-keyboard-response","87","268260","0.0-4.0-8.0-3.0","3260097","control","2025/8/8 11:31:04","2025/8/8 11:37:47",NULL,NULL,"<div style=""font-size: 48px;"">Q</div>",NULL,NULL,NULL,NULL,NULL
NULL,"presentation_trials_main","html-keyboard-response","88","269263","0.0-4.0-8.0-4.0","3260097","control","2025/8/8 11:31:04","2025/8/8 11:37:47",NULL,NULL,"<div style=""font-size: 48px;"">H</div>",NULL,NULL,NULL,NULL,NULL
NULL,"presentation_trials_main","html-keyboard-response","89","270264","0.0-4.0-8.0-5.0","3260097","control","2025/8/8 11:31:04","2025/8/8 11:37:47",NULL,NULL,"<div style=""font-size: 48px;"">8</div>",NULL,NULL,NULL,NULL,NULL
NULL,NULL,"html-keyboard-response","90","271267","0.0-4.0-8.0-6.0","3260097","control","2025/8/8 11:31:04","2025/8/8 11:37:47",NULL,NULL,,NULL,NULL,NULL,NULL,NULL
NULL,"response_trials_main","html-keyboard-response","91","286480","0.0-4.0-8.0-7.0","3260097","control","2025/8/8 11:31:04","2025/8/8 11:37:47",NULL,NULL,NULL,NULL,"168FH","168FH","168EHQ",
NULL,"presentation_trials_main","html-keyboard-response","92","287481","0.0-4.0-9.0-0.0","3260097","control","2025/8/8 11:31:04","2025/8/8 11:37:47",NULL,NULL,"<div style=""font-size: 48px;"">C</div>",NULL,NULL,NULL,NULL,NULL
NULL,"presentation_trials_main","html-keyboard-response","93","288485","0.0-4.0-9.0-1.0","3260097","control","2025/8/8 11:31:04","2025/8/8 11:37:47",NULL,NULL,"<div style=""font-size: 48px;"">4</div>",NULL,NULL,NULL,NULL,NULL
NULL,"presentation_trials_main","html-keyboard-response","94","289487","0.0-4.0-9.0-2.0","3260097","control","2025/8/8 11:31:04","2025/8/8 11:37:47",NULL,NULL,"<div style=""font-size: 48px;"">T</div>",NULL,NULL,NULL,NULL,NULL
NULL,"presentation_trials_main","html-keyboard-response","95","290488","0.0-4.0-9.0-3.0","3260097","control","2025/8/8 11:31:04","2025/8/8 11:37:47",NULL,NULL,"<div style=""font-size: 48px;"">K</div>",NULL,NULL,NULL,NULL,NULL
NULL,"presentation_trials_main","html-keyboard-response","96","291491","0.0-4.0-9.0-4.0","3260097","control","2025/8/8 11:31:04","2025/8/8 11:37:47",NULL,NULL,"<div style=""font-size: 48px;"">2</div>",NULL,NULL,NULL,NULL,NULL
NULL,"presentation_trials_main","html-keyboard-response","97","292494","0.0-4.0-9.0-5.0","3260097","control","2025/8/8 11:31:04","2025/8/8 11:37:47",NULL,NULL,"<div style=""font-size: 48px;"">A</div>",NULL,NULL,NULL,NULL,NULL
NULL,"presentation_trials_main","html-keyboard-response","98","293496","0.0-4.0-9.0-6.0","3260097","control","2025/8/8 11:31:04","2025/8/8 11:37:47",NULL,NULL,"<div style=""font-size: 48px;"">9</div>",NULL,NULL,NULL,NULL,NULL
NULL,NULL,"html-keyboard-response","99","294498","0.0-4.0-9.0-7.0","3260097","control","2025/8/8 11:31:04","2025/8/8 11:37:47",NULL,NULL,,NULL,NULL,NULL,NULL,NULL
NULL,"response_trials_main","html-keyboard-response","100","318112","0.0-4.0-9.0-8.0","3260097","control","2025/8/8 11:31:04","2025/8/8 11:37:47",NULL,NULL,NULL,NULL,"246ACT","246ACT","249ACKT",
NULL,"presentation_trials_main","html-keyboard-response","101","319114","0.0-4.0-10.0-0.0","3260097","control","2025/8/8 11:31:04","2025/8/8 11:37:47",NULL,NULL,"<div style=""font-size: 48px;"">6</div>",NULL,NULL,NULL,NULL,NULL
NULL,"presentation_trials_main","html-keyboard-response","102","320116","0.0-4.0-10.0-1.0","3260097","control","2025/8/8 11:31:04","2025/8/8 11:37:47",NULL,NULL,"<div style=""font-size: 48px;"">Z</div>",NULL,NULL,NULL,NULL,NULL
NULL,"presentation_trials_main","html-keyboard-response","103","321118","0.0-4.0-10.0-2.0","3260097","control","2025/8/8 11:31:04","2025/8/8 11:37:47",NULL,NULL,"<div style=""font-size: 48px;"">R</div>",NULL,NULL,NULL,NULL,NULL
NULL,"presentation_trials_main","html-keyboard-response","104","322120","0.0-4.0-10.0-3.0","3260097","control","2025/8/8 11:31:04","2025/8/8 11:37:47",NULL,NULL,"<div style=""font-size: 48px;"">3</div>",NULL,NULL,NULL,NULL,NULL
NULL,"presentation_trials_main","html-keyboard-response","105","323122","0.0-4.0-10.0-4.0","3260097","control","2025/8/8 11:31:04","2025/8/8 11:37:47",NULL,NULL,"<div style=""font-size: 48px;"">B</div>",NULL,NULL,NULL,NULL,NULL
NULL,"presentation_trials_main","html-keyboard-response","106","324125","0.0-4.0-10.0-5.0","3260097","control","2025/8/8 11:31:04","2025/8/8 11:37:47",NULL,NULL,"<div style=""font-size: 48px;"">J</div>",NULL,NULL,NULL,NULL,NULL
NULL,"presentation_trials_main","html-keyboard-response","107","325126","0.0-4.0-10.0-6.0","3260097","control","2025/8/8 11:31:04","2025/8/8 11:37:47",NULL,NULL,"<div style=""font-size: 48px;"">M</div>",NULL,NULL,NULL,NULL,NULL
NULL,NULL,"html-keyboard-response","108","326128","0.0-4.0-10.0-7.0","3260097","control","2025/8/8 11:31:04","2025/8/8 11:37:47",NULL,NULL,,NULL,NULL,NULL,NULL,NULL
NULL,"response_trials_main","html-keyboard-response","109","365269","0.0-4.0-10.0-8.0","3260097","control","2025/8/8 11:31:04","2025/8/8 11:37:47",NULL,NULL,NULL,NULL,"36BJMRZ","36BJMRZ","36BJMRZ","1"
