success,trial_type,trial_index,time_elapsed,internal_node_id,ID,condition,StartTime,EndTime,task,rt,stimulus,response,view_history,trial_type_custom,rt_pra_or_main,delay
1,preload,0,19,0.0-0.0,5398551,control,2025/8/8 11:24,2025/8/8 11:28,NULL,NULL,NULL,NULL,NULL,NULL,NULL,NULL
1,fullscreen,1,19934,0.0-1.0,5398551,control,2025/8/8 11:24,2025/8/8 11:28,FullScreen,NULL,NULL,NULL,NULL,NULL,NULL,NULL
NULL,html-button-response,2,42612,0.0-2.0,5398551,control,2025/8/8 11:24,2025/8/8 11:28,check_volume,22677,"
        <p style=""text-align: left"">はじめに、この後の実験で使う音声の音量を調整してください。</p>
        <p style=""text-align: left"">以下に提示されている「音を流す」ボタンを押すと音（短いビープ音）が流れますので、</p>
        <p style=""text-align: left"">適切な音量となるようにPCやイヤホンの設定をお願いします。</p>
        <p><button id=""play-sound-button"">音を流す</button></p>
        <p style=""text-align: left""><b>この音は以降も使うので、ここで設定した内容は、この研究のすべての実験が終わるまで変更しないでください。</b></p>
        <p><br></p>
    ",0,NULL,NULL,NULL,NULL
NULL,instructions,3,82693,0.0-3.0,5398551,control,2025/8/8 11:24,2025/8/8 11:28,main_task_inst_tl,40081,NULL,NULL,Array,NULL,NULL,NULL
NULL,html-keyboard-response,4,86424,0.0-4.0-0.0,5398551,control,2025/8/8 11:24,2025/8/8 11:28,start_screen,3731,<p>準備ができたらスペースキーを押してください。課題が始まります。</p>, ,NULL,NULL,NULL,NULL
NULL,html-keyboard-response,5,87426,0.0-4.0-1.0,5398551,control,2025/8/8 11:24,2025/8/8 11:28,fixation,NULL,"<p style=""font-size:48px;"">+</p>",NULL,NULL,NULL,NULL,NULL
NULL,html-keyboard-response,6,89773,0.0-4.0-2.0,5398551,control,2025/8/8 11:24,2025/8/8 11:28,rt_trial,2347,"<div id=""fixation"" style=""font-size: 48px;"">+</div>",tab,NULL,rt_trial,practice,1946
NULL,html-keyboard-response,7,90275,0.0-4.0-3.0,5398551,control,2025/8/8 11:24,2025/8/8 11:28,white_screen,NULL,,NULL,NULL,NULL,NULL,NULL
NULL,html-keyboard-response,8,91509,0.0-4.0-0.1,5398551,control,2025/8/8 11:24,2025/8/8 11:28,start_screen,1234,<p>準備ができたらスペースキーを押してください。課題が始まります。</p>, ,NULL,NULL,NULL,NULL
NULL,html-keyboard-response,9,92510,0.0-4.0-1.1,5398551,control,2025/8/8 11:24,2025/8/8 11:28,fixation,NULL,"<p style=""font-size:48px;"">+</p>",NULL,NULL,NULL,NULL,NULL
NULL,html-keyboard-response,10,93986,0.0-4.0-2.1,5398551,control,2025/8/8 11:24,2025/8/8 11:28,rt_trial,1475,"<div id=""fixation"" style=""font-size: 48px;"">+</div>",tab,NULL,rt_trial,practice,1117
NULL,html-keyboard-response,11,94486,0.0-4.0-3.1,5398551,control,2025/8/8 11:24,2025/8/8 11:28,white_screen,NULL,,NULL,NULL,NULL,NULL,NULL
NULL,html-keyboard-response,12,95160,0.0-4.0-0.2,5398551,control,2025/8/8 11:24,2025/8/8 11:28,start_screen,673,<p>準備ができたらスペースキーを押してください。課題が始まります。</p>, ,NULL,NULL,NULL,NULL
NULL,html-keyboard-response,13,96162,0.0-4.0-1.2,5398551,control,2025/8/8 11:24,2025/8/8 11:28,fixation,NULL,"<p style=""font-size:48px;"">+</p>",NULL,NULL,NULL,NULL,NULL
NULL,html-keyboard-response,14,98958,0.0-4.0-2.2,5398551,control,2025/8/8 11:24,2025/8/8 11:28,rt_trial,2796,"<div id=""fixation"" style=""font-size: 48px;"">+</div>",tab,NULL,rt_trial,practice,2463
NULL,html-keyboard-response,15,99459,0.0-4.0-3.2,5398551,control,2025/8/8 11:24,2025/8/8 11:28,white_screen,NULL,,NULL,NULL,NULL,NULL,NULL
NULL,html-keyboard-response,16,102562,0.0-5.0,5398551,control,2025/8/8 11:24,2025/8/8 11:28,NULL,3103,"<p style=""text-align: left"">練習は以上です。</p>
               <p style=""text-align: left"">この後、本番課題に入ります。</p>
               <p style=""text-align: left"">ビープ音の音量が気になる方は、パソコンの音量設定をここで変更ください。</p>
               <p style=""text-align: left""><strong>本番も、ビープ音が聞こえ次第すぐにTabキーを押してください。</strong></p>
               <p><br><br></p>
               <p><strong>準備ができたらスペースキーを押してください。</strong></p>", ,NULL,NULL,NULL,NULL
NULL,html-keyboard-response,17,104840,0.0-6.0-0.0,5398551,control,2025/8/8 11:24,2025/8/8 11:28,start_screen,2278,<p>準備ができたらスペースキーを押してください。課題が始まります。</p>, ,NULL,NULL,NULL,NULL
NULL,html-keyboard-response,18,105841,0.0-6.0-1.0,5398551,control,2025/8/8 11:24,2025/8/8 11:28,fixation,NULL,"<p style=""font-size:48px;"">+</p>",NULL,NULL,NULL,NULL,NULL
NULL,html-keyboard-response,19,107966,0.0-6.0-2.0,5398551,control,2025/8/8 11:24,2025/8/8 11:28,rt_trial,2125,"<div id=""fixation"" style=""font-size: 48px;"">+</div>",tab,NULL,rt_trial,main,1811
NULL,html-keyboard-response,20,108467,0.0-6.0-3.0,5398551,control,2025/8/8 11:24,2025/8/8 11:28,white_screen,NULL,,NULL,NULL,NULL,NULL,NULL
NULL,html-keyboard-response,21,109013,0.0-6.0-0.1,5398551,control,2025/8/8 11:24,2025/8/8 11:28,start_screen,545,<p>準備ができたらスペースキーを押してください。課題が始まります。</p>, ,NULL,NULL,NULL,NULL
NULL,html-keyboard-response,22,110014,0.0-6.0-1.1,5398551,control,2025/8/8 11:24,2025/8/8 11:28,fixation,NULL,"<p style=""font-size:48px;"">+</p>",NULL,NULL,NULL,NULL,NULL
NULL,html-keyboard-response,23,112182,0.0-6.0-2.1,5398551,control,2025/8/8 11:24,2025/8/8 11:28,rt_trial,2168,"<div id=""fixation"" style=""font-size: 48px;"">+</div>",tab,NULL,rt_trial,main,1809
NULL,html-keyboard-response,24,112683,0.0-6.0-3.1,5398551,control,2025/8/8 11:24,2025/8/8 11:28,white_screen,NULL,,NULL,NULL,NULL,NULL,NULL
NULL,html-keyboard-response,25,113068,0.0-6.0-0.2,5398551,control,2025/8/8 11:24,2025/8/8 11:28,start_screen,384,<p>準備ができたらスペースキーを押してください。課題が始まります。</p>, ,NULL,NULL,NULL,NULL
NULL,html-keyboard-response,26,114069,0.0-6.0-1.2,5398551,control,2025/8/8 11:24,2025/8/8 11:28,fixation,NULL,"<p style=""font-size:48px;"">+</p>",NULL,NULL,NULL,NULL,NULL
NULL,html-keyboard-response,27,115743,0.0-6.0-2.2,5398551,control,2025/8/8 11:24,2025/8/8 11:28,rt_trial,1674,"<div id=""fixation"" style=""font-size: 48px;"">+</div>",tab,NULL,rt_trial,main,1338
NULL,html-keyboard-response,28,116244,0.0-6.0-3.2,5398551,control,2025/8/8 11:24,2025/8/8 11:28,white_screen,NULL,,NULL,NULL,NULL,NULL,NULL
NULL,html-keyboard-response,29,116788,0.0-6.0-0.3,5398551,control,2025/8/8 11:24,2025/8/8 11:28,start_screen,544,<p>準備ができたらスペースキーを押してください。課題が始まります。</p>, ,NULL,NULL,NULL,NULL
NULL,html-keyboard-response,30,117790,0.0-6.0-1.3,5398551,control,2025/8/8 11:24,2025/8/8 11:28,fixation,NULL,"<p style=""font-size:48px;"">+</p>",NULL,NULL,NULL,NULL,NULL
NULL,html-keyboard-response,31,120431,0.0-6.0-2.3,5398551,control,2025/8/8 11:24,2025/8/8 11:28,rt_trial,2641,"<div id=""fixation"" style=""font-size: 48px;"">+</div>",tab,NULL,rt_trial,main,2314
NULL,html-keyboard-response,32,120935,0.0-6.0-3.3,5398551,control,2025/8/8 11:24,2025/8/8 11:28,white_screen,NULL,,NULL,NULL,NULL,NULL,NULL
NULL,html-keyboard-response,33,121912,0.0-6.0-0.4,5398551,control,2025/8/8 11:24,2025/8/8 11:28,start_screen,977,<p>準備ができたらスペースキーを押してください。課題が始まります。</p>, ,NULL,NULL,NULL,NULL
NULL,html-keyboard-response,34,122914,0.0-6.0-1.4,5398551,control,2025/8/8 11:24,2025/8/8 11:28,fixation,NULL,"<p style=""font-size:48px;"">+</p>",NULL,NULL,NULL,NULL,NULL
NULL,html-keyboard-response,35,125231,0.0-6.0-2.4,5398551,control,2025/8/8 11:24,2025/8/8 11:28,rt_trial,2317,"<div id=""fixation"" style=""font-size: 48px;"">+</div>",tab,NULL,rt_trial,main,2025
NULL,html-keyboard-response,36,125732,0.0-6.0-3.4,5398551,control,2025/8/8 11:24,2025/8/8 11:28,white_screen,NULL,,NULL,NULL,NULL,NULL,NULL
NULL,html-keyboard-response,37,126275,0.0-6.0-0.5,5398551,control,2025/8/8 11:24,2025/8/8 11:28,start_screen,542,<p>準備ができたらスペースキーを押してください。課題が始まります。</p>, ,NULL,NULL,NULL,NULL
NULL,html-keyboard-response,38,127275,0.0-6.0-1.5,5398551,control,2025/8/8 11:24,2025/8/8 11:28,fixation,NULL,"<p style=""font-size:48px;"">+</p>",NULL,NULL,NULL,NULL,NULL
NULL,html-keyboard-response,39,129677,0.0-6.0-2.5,5398551,control,2025/8/8 11:24,2025/8/8 11:28,rt_trial,2401,"<div id=""fixation"" style=""font-size: 48px;"">+</div>",tab,NULL,rt_trial,main,2100
NULL,html-keyboard-response,40,130178,0.0-6.0-3.5,5398551,control,2025/8/8 11:24,2025/8/8 11:28,white_screen,NULL,,NULL,NULL,NULL,NULL,NULL
NULL,html-keyboard-response,41,130557,0.0-6.0-0.6,5398551,control,2025/8/8 11:24,2025/8/8 11:28,start_screen,378,<p>準備ができたらスペースキーを押してください。課題が始まります。</p>, ,NULL,NULL,NULL,NULL
NULL,html-keyboard-response,42,131558,0.0-6.0-1.6,5398551,control,2025/8/8 11:24,2025/8/8 11:28,fixation,NULL,"<p style=""font-size:48px;"">+</p>",NULL,NULL,NULL,NULL,NULL
NULL,html-keyboard-response,43,134083,0.0-6.0-2.6,5398551,control,2025/8/8 11:24,2025/8/8 11:28,rt_trial,2525,"<div id=""fixation"" style=""font-size: 48px;"">+</div>",tab,NULL,rt_trial,main,2239
NULL,html-keyboard-response,44,134584,0.0-6.0-3.6,5398551,control,2025/8/8 11:24,2025/8/8 11:28,white_screen,NULL,,NULL,NULL,NULL,NULL,NULL
NULL,html-keyboard-response,45,134985,0.0-6.0-0.7,5398551,control,2025/8/8 11:24,2025/8/8 11:28,start_screen,400,<p>準備ができたらスペースキーを押してください。課題が始まります。</p>, ,NULL,NULL,NULL,NULL
NULL,html-keyboard-response,46,135987,0.0-6.0-1.7,5398551,control,2025/8/8 11:24,2025/8/8 11:28,fixation,NULL,"<p style=""font-size:48px;"">+</p>",NULL,NULL,NULL,NULL,NULL
NULL,html-keyboard-response,47,139160,0.0-6.0-2.7,5398551,control,2025/8/8 11:24,2025/8/8 11:28,rt_trial,3172,"<div id=""fixation"" style=""font-size: 48px;"">+</div>",tab,NULL,rt_trial,main,2851
NULL,html-keyboard-response,48,139661,0.0-6.0-3.7,5398551,control,2025/8/8 11:24,2025/8/8 11:28,white_screen,NULL,,NULL,NULL,NULL,NULL,NULL
NULL,html-keyboard-response,49,140029,0.0-6.0-0.8,5398551,control,2025/8/8 11:24,2025/8/8 11:28,start_screen,368,<p>準備ができたらスペースキーを押してください。課題が始まります。</p>, ,NULL,NULL,NULL,NULL
NULL,html-keyboard-response,50,141030,0.0-6.0-1.8,5398551,control,2025/8/8 11:24,2025/8/8 11:28,fixation,NULL,"<p style=""font-size:48px;"">+</p>",NULL,NULL,NULL,NULL,NULL
NULL,html-keyboard-response,51,142878,0.0-6.0-2.8,5398551,control,2025/8/8 11:24,2025/8/8 11:28,rt_trial,1848,"<div id=""fixation"" style=""font-size: 48px;"">+</div>",tab,NULL,rt_trial,main,1502
NULL,html-keyboard-response,52,143380,0.0-6.0-3.8,5398551,control,2025/8/8 11:24,2025/8/8 11:28,white_screen,NULL,,NULL,NULL,NULL,NULL,NULL
NULL,html-keyboard-response,53,143816,0.0-6.0-0.9,5398551,control,2025/8/8 11:24,2025/8/8 11:28,start_screen,436,<p>準備ができたらスペースキーを押してください。課題が始まります。</p>, ,NULL,NULL,NULL,NULL
NULL,html-keyboard-response,54,144817,0.0-6.0-1.9,5398551,control,2025/8/8 11:24,2025/8/8 11:28,fixation,NULL,"<p style=""font-size:48px;"">+</p>",NULL,NULL,NULL,NULL,NULL
NULL,html-keyboard-response,55,147464,0.0-6.0-2.9,5398551,control,2025/8/8 11:24,2025/8/8 11:28,rt_trial,2647,"<div id=""fixation"" style=""font-size: 48px;"">+</div>",tab,NULL,rt_trial,main,2341
NULL,html-keyboard-response,56,147965,0.0-6.0-3.9,5398551,control,2025/8/8 11:24,2025/8/8 11:28,white_screen,NULL,,NULL,NULL,NULL,NULL,NULL
NULL,html-keyboard-response,57,148394,0.0-6.0-0.10,5398551,control,2025/8/8 11:24,2025/8/8 11:28,start_screen,429,<p>準備ができたらスペースキーを押してください。課題が始まります。</p>, ,NULL,NULL,NULL,NULL
NULL,html-keyboard-response,58,149395,0.0-6.0-1.10,5398551,control,2025/8/8 11:24,2025/8/8 11:28,fixation,NULL,"<p style=""font-size:48px;"">+</p>",NULL,NULL,NULL,NULL,NULL
NULL,html-keyboard-response,59,151770,0.0-6.0-2.10,5398551,control,2025/8/8 11:24,2025/8/8 11:28,rt_trial,2375,"<div id=""fixation"" style=""font-size: 48px;"">+</div>",tab,NULL,rt_trial,main,2082
NULL,html-keyboard-response,60,152272,0.0-6.0-3.10,5398551,control,2025/8/8 11:24,2025/8/8 11:28,white_screen,NULL,,NULL,NULL,NULL,NULL,NULL
NULL,html-keyboard-response,61,152536,0.0-6.0-0.11,5398551,control,2025/8/8 11:24,2025/8/8 11:28,start_screen,264,<p>準備ができたらスペースキーを押してください。課題が始まります。</p>, ,NULL,NULL,NULL,NULL
NULL,html-keyboard-response,62,153542,0.0-6.0-1.11,5398551,control,2025/8/8 11:24,2025/8/8 11:28,fixation,NULL,"<p style=""font-size:48px;"">+</p>",NULL,NULL,NULL,NULL,NULL
NULL,html-keyboard-response,63,156476,0.0-6.0-2.11,5398551,control,2025/8/8 11:24,2025/8/8 11:28,rt_trial,2934,"<div id=""fixation"" style=""font-size: 48px;"">+</div>",tab,NULL,rt_trial,main,2657
NULL,html-keyboard-response,64,156977,0.0-6.0-3.11,5398551,control,2025/8/8 11:24,2025/8/8 11:28,white_screen,NULL,,NULL,NULL,NULL,NULL,NULL
NULL,html-keyboard-response,65,157354,0.0-6.0-0.12,5398551,control,2025/8/8 11:24,2025/8/8 11:28,start_screen,376,<p>準備ができたらスペースキーを押してください。課題が始まります。</p>, ,NULL,NULL,NULL,NULL
NULL,html-keyboard-response,66,158355,0.0-6.0-1.12,5398551,control,2025/8/8 11:24,2025/8/8 11:28,fixation,NULL,"<p style=""font-size:48px;"">+</p>",NULL,NULL,NULL,NULL,NULL
NULL,html-keyboard-response,67,159986,0.0-6.0-2.12,5398551,control,2025/8/8 11:24,2025/8/8 11:28,rt_trial,1631,"<div id=""fixation"" style=""font-size: 48px;"">+</div>",tab,NULL,rt_trial,main,1307
NULL,html-keyboard-response,68,160494,0.0-6.0-3.12,5398551,control,2025/8/8 11:24,2025/8/8 11:28,white_screen,NULL,,NULL,NULL,NULL,NULL,NULL
NULL,html-keyboard-response,69,160790,0.0-6.0-0.13,5398551,control,2025/8/8 11:24,2025/8/8 11:28,start_screen,296,<p>準備ができたらスペースキーを押してください。課題が始まります。</p>, ,NULL,NULL,NULL,NULL
NULL,html-keyboard-response,70,161791,0.0-6.0-1.13,5398551,control,2025/8/8 11:24,2025/8/8 11:28,fixation,NULL,"<p style=""font-size:48px;"">+</p>",NULL,NULL,NULL,NULL,NULL
NULL,html-keyboard-response,71,163486,0.0-6.0-2.13,5398551,control,2025/8/8 11:24,2025/8/8 11:28,rt_trial,1695,"<div id=""fixation"" style=""font-size: 48px;"">+</div>",tab,NULL,rt_trial,main,1396
NULL,html-keyboard-response,72,163989,0.0-6.0-3.13,5398551,control,2025/8/8 11:24,2025/8/8 11:28,white_screen,NULL,,NULL,NULL,NULL,NULL,NULL
NULL,html-keyboard-response,73,164315,0.0-6.0-0.14,5398551,control,2025/8/8 11:24,2025/8/8 11:28,start_screen,325,<p>準備ができたらスペースキーを押してください。課題が始まります。</p>, ,NULL,NULL,NULL,NULL
NULL,html-keyboard-response,74,165315,0.0-6.0-1.14,5398551,control,2025/8/8 11:24,2025/8/8 11:28,fixation,NULL,"<p style=""font-size:48px;"">+</p>",NULL,NULL,NULL,NULL,NULL
NULL,html-keyboard-response,75,168021,0.0-6.0-2.14,5398551,control,2025/8/8 11:24,2025/8/8 11:28,rt_trial,2705,"<div id=""fixation"" style=""font-size: 48px;"">+</div>",tab,NULL,rt_trial,main,2423
NULL,html-keyboard-response,76,168522,0.0-6.0-3.14,5398551,control,2025/8/8 11:24,2025/8/8 11:28,white_screen,NULL,,NULL,NULL,NULL,NULL,NULL
NULL,html-keyboard-response,77,168886,0.0-6.0-0.15,5398551,control,2025/8/8 11:24,2025/8/8 11:28,start_screen,363,<p>準備ができたらスペースキーを押してください。課題が始まります。</p>, ,NULL,NULL,NULL,NULL
NULL,html-keyboard-response,78,169886,0.0-6.0-1.15,5398551,control,2025/8/8 11:24,2025/8/8 11:28,fixation,NULL,"<p style=""font-size:48px;"">+</p>",NULL,NULL,NULL,NULL,NULL
NULL,html-keyboard-response,79,172771,0.0-6.0-2.15,5398551,control,2025/8/8 11:24,2025/8/8 11:28,rt_trial,2884,"<div id=""fixation"" style=""font-size: 48px;"">+</div>",tab,NULL,rt_trial,main,2562
NULL,html-keyboard-response,80,173272,0.0-6.0-3.15,5398551,control,2025/8/8 11:24,2025/8/8 11:28,white_screen,NULL,,NULL,NULL,NULL,NULL,NULL
NULL,html-keyboard-response,81,173565,0.0-6.0-0.16,5398551,control,2025/8/8 11:24,2025/8/8 11:28,start_screen,292,<p>準備ができたらスペースキーを押してください。課題が始まります。</p>, ,NULL,NULL,NULL,NULL
NULL,html-keyboard-response,82,174566,0.0-6.0-1.16,5398551,control,2025/8/8 11:24,2025/8/8 11:28,fixation,NULL,"<p style=""font-size:48px;"">+</p>",NULL,NULL,NULL,NULL,NULL
NULL,html-keyboard-response,83,177616,0.0-6.0-2.16,5398551,control,2025/8/8 11:24,2025/8/8 11:28,rt_trial,3050,"<div id=""fixation"" style=""font-size: 48px;"">+</div>",tab,NULL,rt_trial,main,2750
NULL,html-keyboard-response,84,178118,0.0-6.0-3.16,5398551,control,2025/8/8 11:24,2025/8/8 11:28,white_screen,NULL,,NULL,NULL,NULL,NULL,NULL
NULL,html-keyboard-response,85,178457,0.0-6.0-0.17,5398551,control,2025/8/8 11:24,2025/8/8 11:28,start_screen,339,<p>準備ができたらスペースキーを押してください。課題が始まります。</p>, ,NULL,NULL,NULL,NULL
NULL,html-keyboard-response,86,179458,0.0-6.0-1.17,5398551,control,2025/8/8 11:24,2025/8/8 11:28,fixation,NULL,"<p style=""font-size:48px;"">+</p>",NULL,NULL,NULL,NULL,NULL
NULL,html-keyboard-response,87,181867,0.0-6.0-2.17,5398551,control,2025/8/8 11:24,2025/8/8 11:28,rt_trial,2409,"<div id=""fixation"" style=""font-size: 48px;"">+</div>",tab,NULL,rt_trial,main,2118
NULL,html-keyboard-response,88,182369,0.0-6.0-3.17,5398551,control,2025/8/8 11:24,2025/8/8 11:28,white_screen,NULL,,NULL,NULL,NULL,NULL,NULL
NULL,html-keyboard-response,89,182682,0.0-6.0-0.18,5398551,control,2025/8/8 11:24,2025/8/8 11:28,start_screen,313,<p>準備ができたらスペースキーを押してください。課題が始まります。</p>, ,NULL,NULL,NULL,NULL
NULL,html-keyboard-response,90,183684,0.0-6.0-1.18,5398551,control,2025/8/8 11:24,2025/8/8 11:28,fixation,NULL,"<p style=""font-size:48px;"">+</p>",NULL,NULL,NULL,NULL,NULL
NULL,html-keyboard-response,91,186253,0.0-6.0-2.18,5398551,control,2025/8/8 11:24,2025/8/8 11:28,rt_trial,2569,"<div id=""fixation"" style=""font-size: 48px;"">+</div>",tab,NULL,rt_trial,main,2270
NULL,html-keyboard-response,92,186754,0.0-6.0-3.18,5398551,control,2025/8/8 11:24,2025/8/8 11:28,white_screen,NULL,,NULL,NULL,NULL,NULL,NULL
NULL,html-keyboard-response,93,187065,0.0-6.0-0.19,5398551,control,2025/8/8 11:24,2025/8/8 11:28,start_screen,311,<p>準備ができたらスペースキーを押してください。課題が始まります。</p>, ,NULL,NULL,NULL,NULL
NULL,html-keyboard-response,94,188066,0.0-6.0-1.19,5398551,control,2025/8/8 11:24,2025/8/8 11:28,fixation,NULL,"<p style=""font-size:48px;"">+</p>",NULL,NULL,NULL,NULL,NULL
NULL,html-keyboard-response,95,189758,0.0-6.0-2.19,5398551,control,2025/8/8 11:24,2025/8/8 11:28,rt_trial,1692,"<div id=""fixation"" style=""font-size: 48px;"">+</div>",tab,NULL,rt_trial,main,1351
NULL,html-keyboard-response,96,190259,0.0-6.0-3.19,5398551,control,2025/8/8 11:24,2025/8/8 11:28,white_screen,NULL,,NULL,NULL,NULL,NULL,NULL
NULL,html-keyboard-response,97,190540,0.0-6.0-0.20,5398551,control,2025/8/8 11:24,2025/8/8 11:28,start_screen,281,<p>準備ができたらスペースキーを押してください。課題が始まります。</p>, ,NULL,NULL,NULL,NULL
NULL,html-keyboard-response,98,191541,0.0-6.0-1.20,5398551,control,2025/8/8 11:24,2025/8/8 11:28,fixation,NULL,"<p style=""font-size:48px;"">+</p>",NULL,NULL,NULL,NULL,NULL
NULL,html-keyboard-response,99,194676,0.0-6.0-2.20,5398551,control,2025/8/8 11:24,2025/8/8 11:28,rt_trial,3135,"<div id=""fixation"" style=""font-size: 48px;"">+</div>",tab,NULL,rt_trial,main,2837
NULL,html-keyboard-response,100,195186,0.0-6.0-3.20,5398551,control,2025/8/8 11:24,2025/8/8 11:28,white_screen,NULL,,NULL,NULL,NULL,NULL,NULL
NULL,html-keyboard-response,101,195475,0.0-6.0-0.21,5398551,control,2025/8/8 11:24,2025/8/8 11:28,start_screen,289,<p>準備ができたらスペースキーを押してください。課題が始まります。</p>, ,NULL,NULL,NULL,NULL
NULL,html-keyboard-response,102,196477,0.0-6.0-1.21,5398551,control,2025/8/8 11:24,2025/8/8 11:28,fixation,NULL,"<p style=""font-size:48px;"">+</p>",NULL,NULL,NULL,NULL,NULL
NULL,html-keyboard-response,103,199088,0.0-6.0-2.21,5398551,control,2025/8/8 11:24,2025/8/8 11:28,rt_trial,2611,"<div id=""fixation"" style=""font-size: 48px;"">+</div>",tab,NULL,rt_trial,main,2291
NULL,html-keyboard-response,104,199590,0.0-6.0-3.21,5398551,control,2025/8/8 11:24,2025/8/8 11:28,white_screen,NULL,,NULL,NULL,NULL,NULL,NULL
NULL,html-keyboard-response,105,199880,0.0-6.0-0.22,5398551,control,2025/8/8 11:24,2025/8/8 11:28,start_screen,290,<p>準備ができたらスペースキーを押してください。課題が始まります。</p>, ,NULL,NULL,NULL,NULL
NULL,html-keyboard-response,106,200882,0.0-6.0-1.22,5398551,control,2025/8/8 11:24,2025/8/8 11:28,fixation,NULL,"<p style=""font-size:48px;"">+</p>",NULL,NULL,NULL,NULL,NULL
NULL,html-keyboard-response,107,203234,0.0-6.0-2.22,5398551,control,2025/8/8 11:24,2025/8/8 11:28,rt_trial,2352,"<div id=""fixation"" style=""font-size: 48px;"">+</div>",tab,NULL,rt_trial,main,2019
NULL,html-keyboard-response,108,203735,0.0-6.0-3.22,5398551,control,2025/8/8 11:24,2025/8/8 11:28,white_screen,NULL,,NULL,NULL,NULL,NULL,NULL
NULL,html-keyboard-response,109,204002,0.0-6.0-0.23,5398551,control,2025/8/8 11:24,2025/8/8 11:28,start_screen,267,<p>準備ができたらスペースキーを押してください。課題が始まります。</p>, ,NULL,NULL,NULL,NULL
NULL,html-keyboard-response,110,205004,0.0-6.0-1.23,5398551,control,2025/8/8 11:24,2025/8/8 11:28,fixation,NULL,"<p style=""font-size:48px;"">+</p>",NULL,NULL,NULL,NULL,NULL
NULL,html-keyboard-response,111,206742,0.0-6.0-2.23,5398551,control,2025/8/8 11:24,2025/8/8 11:28,rt_trial,1738,"<div id=""fixation"" style=""font-size: 48px;"">+</div>",tab,NULL,rt_trial,main,1450
NULL,html-keyboard-response,112,207244,0.0-6.0-3.23,5398551,control,2025/8/8 11:24,2025/8/8 11:28,white_screen,NULL,,NULL,NULL,NULL,NULL,NULL
NULL,html-keyboard-response,113,207515,0.0-6.0-0.24,5398551,control,2025/8/8 11:24,2025/8/8 11:28,start_screen,271,<p>準備ができたらスペースキーを押してください。課題が始まります。</p>, ,NULL,NULL,NULL,NULL
NULL,html-keyboard-response,114,208516,0.0-6.0-1.24,5398551,control,2025/8/8 11:24,2025/8/8 11:28,fixation,NULL,"<p style=""font-size:48px;"">+</p>",NULL,NULL,NULL,NULL,NULL
NULL,html-keyboard-response,115,211453,0.0-6.0-2.24,5398551,control,2025/8/8 11:24,2025/8/8 11:28,rt_trial,2937,"<div id=""fixation"" style=""font-size: 48px;"">+</div>",tab,NULL,rt_trial,main,2654
NULL,html-keyboard-response,116,211955,0.0-6.0-3.24,5398551,control,2025/8/8 11:24,2025/8/8 11:28,white_screen,NULL,,NULL,NULL,NULL,NULL,NULL
NULL,html-keyboard-response,117,212218,0.0-6.0-0.25,5398551,control,2025/8/8 11:24,2025/8/8 11:28,start_screen,262,<p>準備ができたらスペースキーを押してください。課題が始まります。</p>, ,NULL,NULL,NULL,NULL
NULL,html-keyboard-response,118,213219,0.0-6.0-1.25,5398551,control,2025/8/8 11:24,2025/8/8 11:28,fixation,NULL,"<p style=""font-size:48px;"">+</p>",NULL,NULL,NULL,NULL,NULL
NULL,html-keyboard-response,119,215821,0.0-6.0-2.25,5398551,control,2025/8/8 11:24,2025/8/8 11:28,rt_trial,2601,"<div id=""fixation"" style=""font-size: 48px;"">+</div>",tab,NULL,rt_trial,main,2290
NULL,html-keyboard-response,120,216322,0.0-6.0-3.25,5398551,control,2025/8/8 11:24,2025/8/8 11:28,white_screen,NULL,,NULL,NULL,NULL,NULL,NULL
NULL,html-keyboard-response,121,216644,0.0-6.0-0.26,5398551,control,2025/8/8 11:24,2025/8/8 11:28,start_screen,321,<p>準備ができたらスペースキーを押してください。課題が始まります。</p>, ,NULL,NULL,NULL,NULL
NULL,html-keyboard-response,122,217645,0.0-6.0-1.26,5398551,control,2025/8/8 11:24,2025/8/8 11:28,fixation,NULL,"<p style=""font-size:48px;"">+</p>",NULL,NULL,NULL,NULL,NULL
NULL,html-keyboard-response,123,220920,0.0-6.0-2.26,5398551,control,2025/8/8 11:24,2025/8/8 11:28,rt_trial,3274,"<div id=""fixation"" style=""font-size: 48px;"">+</div>",tab,NULL,rt_trial,main,2958
NULL,html-keyboard-response,124,221421,0.0-6.0-3.26,5398551,control,2025/8/8 11:24,2025/8/8 11:28,white_screen,NULL,,NULL,NULL,NULL,NULL,NULL
NULL,html-keyboard-response,125,221673,0.0-6.0-0.27,5398551,control,2025/8/8 11:24,2025/8/8 11:28,start_screen,252,<p>準備ができたらスペースキーを押してください。課題が始まります。</p>, ,NULL,NULL,NULL,NULL
NULL,html-keyboard-response,126,222675,0.0-6.0-1.27,5398551,control,2025/8/8 11:24,2025/8/8 11:28,fixation,NULL,"<p style=""font-size:48px;"">+</p>",NULL,NULL,NULL,NULL,NULL
NULL,html-keyboard-response,127,224378,0.0-6.0-2.27,5398551,control,2025/8/8 11:24,2025/8/8 11:28,rt_trial,1703,"<div id=""fixation"" style=""font-size: 48px;"">+</div>",tab,NULL,rt_trial,main,1369
NULL,html-keyboard-response,128,224880,0.0-6.0-3.27,5398551,control,2025/8/8 11:24,2025/8/8 11:28,white_screen,NULL,,NULL,NULL,NULL,NULL,NULL
NULL,html-keyboard-response,129,225112,0.0-6.0-0.28,5398551,control,2025/8/8 11:24,2025/8/8 11:28,start_screen,231,<p>準備ができたらスペースキーを押してください。課題が始まります。</p>, ,NULL,NULL,NULL,NULL
NULL,html-keyboard-response,130,226113,0.0-6.0-1.28,5398551,control,2025/8/8 11:24,2025/8/8 11:28,fixation,NULL,"<p style=""font-size:48px;"">+</p>",NULL,NULL,NULL,NULL,NULL
NULL,html-keyboard-response,131,228544,0.0-6.0-2.28,5398551,control,2025/8/8 11:24,2025/8/8 11:28,rt_trial,2430,"<div id=""fixation"" style=""font-size: 48px;"">+</div>",tab,NULL,rt_trial,main,2059
NULL,html-keyboard-response,132,229045,0.0-6.0-3.28,5398551,control,2025/8/8 11:24,2025/8/8 11:28,white_screen,NULL,,NULL,NULL,NULL,NULL,NULL
NULL,html-keyboard-response,133,229360,0.0-6.0-0.29,5398551,control,2025/8/8 11:24,2025/8/8 11:28,start_screen,314,<p>準備ができたらスペースキーを押してください。課題が始まります。</p>, ,NULL,NULL,NULL,NULL
NULL,html-keyboard-response,134,230361,0.0-6.0-1.29,5398551,control,2025/8/8 11:24,2025/8/8 11:28,fixation,NULL,"<p style=""font-size:48px;"">+</p>",NULL,NULL,NULL,NULL,NULL
NULL,html-keyboard-response,135,233032,0.0-6.0-2.29,5398551,control,2025/8/8 11:24,2025/8/8 11:28,rt_trial,2671,"<div id=""fixation"" style=""font-size: 48px;"">+</div>",tab,NULL,rt_trial,main,2322
NULL,html-keyboard-response,136,233533,0.0-6.0-3.29,5398551,control,2025/8/8 11:24,2025/8/8 11:28,white_screen,NULL,,NULL,NULL,NULL,NULL,NULL
NULL,html-keyboard-response,137,235688,0.0-7.0,5398551,control,2025/8/8 11:24,2025/8/8 11:28,task_description,2155,"<p style=""text-align: left"">おつかれさまでした。</p>
        <p><br><br></p>
        <p style=""text-align: left"">次に、本課題の際に行ってもらう課題の説明に移ります。</p>
        <p style=""text-align: left""><strong>準備ができたらスペースキーを押してください。</strong></p>", ,NULL,NULL,NULL,NULL
1,preload,0,42,0.0-0.0,3260097,control,2025/8/8 11:24,2025/8/8 11:28,NULL,NULL,NULL,NULL,NULL,NULL,NULL,NULL
1,fullscreen,1,3323,0.0-1.0,3260097,control,2025/8/8 11:24,2025/8/8 11:28,FullScreen,NULL,NULL,NULL,NULL,NULL,NULL,NULL
NULL,html-button-response,2,10249,0.0-2.0,3260097,control,2025/8/8 11:24,2025/8/8 11:28,check_volume,6923,"
        <p style=""text-align: left"">はじめに、この後の実験で使う音声の音量を調整してください。</p>
        <p style=""text-align: left"">以下に提示されている「音を流す」ボタンを押すと音（短いビープ音）が流れますので、</p>
        <p style=""text-align: left"">適切な音量となるようにPCやイヤホンの設定をお願いします。</p>
        <p><button id=""play-sound-button"">音を流す</button></p>
        <p style=""text-align: left""><b>この音は以降も使うので、ここで設定した内容は、この研究のすべての実験が終わるまで変更しないでください。</b></p>
        <p><br></p>
    ",0,NULL,NULL,NULL,NULL
NULL,instructions,3,65057,0.0-3.0,3260097,control,2025/8/8 11:24,2025/8/8 11:28,main_task_inst_tl,54807,NULL,NULL,Array,NULL,NULL,NULL
NULL,html-keyboard-response,4,67093,0.0-4.0-0.0,3260097,control,2025/8/8 11:24,2025/8/8 11:28,start_screen,2034,<p>準備ができたらスペースキーを押してください。課題が始まります。</p>, ,NULL,NULL,NULL,NULL
NULL,html-keyboard-response,5,68104,0.0-4.0-1.0,3260097,control,2025/8/8 11:24,2025/8/8 11:28,fixation,NULL,"<p style=""font-size:48px;"">+</p>",NULL,NULL,NULL,NULL,NULL
NULL,html-keyboard-response,6,69921,0.0-4.0-2.0,3260097,control,2025/8/8 11:24,2025/8/8 11:28,rt_trial,1815,"<div id=""fixation"" style=""font-size: 48px;"">+</div>",tab,NULL,rt_trial,practice,1208
NULL,html-keyboard-response,7,70430,0.0-4.0-3.0,3260097,control,2025/8/8 11:24,2025/8/8 11:28,white_screen,NULL,,NULL,NULL,NULL,NULL,NULL
NULL,html-keyboard-response,8,71866,0.0-4.0-0.1,3260097,control,2025/8/8 11:24,2025/8/8 11:28,start_screen,1435,<p>準備ができたらスペースキーを押してください。課題が始まります。</p>, ,NULL,NULL,NULL,NULL
NULL,html-keyboard-response,9,72878,0.0-4.0-1.1,3260097,control,2025/8/8 11:24,2025/8/8 11:28,fixation,NULL,"<p style=""font-size:48px;"">+</p>",NULL,NULL,NULL,NULL,NULL
NULL,html-keyboard-response,10,75724,0.0-4.0-2.1,3260097,control,2025/8/8 11:24,2025/8/8 11:28,rt_trial,2845,"<div id=""fixation"" style=""font-size: 48px;"">+</div>",tab,NULL,rt_trial,practice,2547
NULL,html-keyboard-response,11,76239,0.0-4.0-3.1,3260097,control,2025/8/8 11:24,2025/8/8 11:28,white_screen,NULL,,NULL,NULL,NULL,NULL,NULL
NULL,html-keyboard-response,12,77643,0.0-4.0-0.2,3260097,control,2025/8/8 11:24,2025/8/8 11:28,start_screen,1402,<p>準備ができたらスペースキーを押してください。課題が始まります。</p>, ,NULL,NULL,NULL,NULL
NULL,html-keyboard-response,13,78646,0.0-4.0-1.2,3260097,control,2025/8/8 11:24,2025/8/8 11:28,fixation,NULL,"<p style=""font-size:48px;"">+</p>",NULL,NULL,NULL,NULL,NULL
NULL,html-keyboard-response,14,81721,0.0-4.0-2.2,3260097,control,2025/8/8 11:24,2025/8/8 11:28,rt_trial,3073,"<div id=""fixation"" style=""font-size: 48px;"">+</div>",tab,NULL,rt_trial,practice,2772
NULL,html-keyboard-response,15,82223,0.0-4.0-3.2,3260097,control,2025/8/8 11:24,2025/8/8 11:28,white_screen,NULL,,NULL,NULL,NULL,NULL,NULL
NULL,html-keyboard-response,16,90756,0.0-5.0,3260097,control,2025/8/8 11:24,2025/8/8 11:28,NULL,8531,"<p style=""text-align: left"">練習は以上です。</p>
               <p style=""text-align: left"">この後、本番課題に入ります。</p>
               <p style=""text-align: left"">ビープ音の音量が気になる方は、パソコンの音量設定をここで変更ください。</p>
               <p style=""text-align: left""><strong>本番も、ビープ音が聞こえ次第すぐにTabキーを押してください。</strong></p>
               <p><br><br></p>
               <p><strong>準備ができたらスペースキーを押してください。</strong></p>", ,NULL,NULL,NULL,NULL
NULL,html-keyboard-response,17,92050,0.0-6.0-0.0,3260097,control,2025/8/8 11:24,2025/8/8 11:28,start_screen,1293,<p>準備ができたらスペースキーを押してください。課題が始まります。</p>, ,NULL,NULL,NULL,NULL
NULL,html-keyboard-response,18,93056,0.0-6.0-1.0,3260097,control,2025/8/8 11:24,2025/8/8 11:28,fixation,NULL,"<p style=""font-size:48px;"">+</p>",NULL,NULL,NULL,NULL,NULL
NULL,html-keyboard-response,19,96046,0.0-6.0-2.0,3260097,control,2025/8/8 11:24,2025/8/8 11:28,rt_trial,2988,"<div id=""fixation"" style=""font-size: 48px;"">+</div>",tab,NULL,rt_trial,main,2727
NULL,html-keyboard-response,20,96558,0.0-6.0-3.0,3260097,control,2025/8/8 11:24,2025/8/8 11:28,white_screen,NULL,,NULL,NULL,NULL,NULL,NULL
NULL,html-keyboard-response,21,97867,0.0-6.0-0.1,3260097,control,2025/8/8 11:24,2025/8/8 11:28,start_screen,1307,<p>準備ができたらスペースキーを押してください。課題が始まります。</p>, ,NULL,NULL,NULL,NULL
NULL,html-keyboard-response,22,98877,0.0-6.0-1.1,3260097,control,2025/8/8 11:24,2025/8/8 11:28,fixation,NULL,"<p style=""font-size:48px;"">+</p>",NULL,NULL,NULL,NULL,NULL
NULL,html-keyboard-response,23,100621,0.0-6.0-2.1,3260097,control,2025/8/8 11:24,2025/8/8 11:28,rt_trial,1742,"<div id=""fixation"" style=""font-size: 48px;"">+</div>",tab,NULL,rt_trial,main,1470
NULL,html-keyboard-response,24,101122,0.0-6.0-3.1,3260097,control,2025/8/8 11:24,2025/8/8 11:28,white_screen,NULL,,NULL,NULL,NULL,NULL,NULL
NULL,html-keyboard-response,25,101787,0.0-6.0-0.2,3260097,control,2025/8/8 11:24,2025/8/8 11:28,start_screen,664,<p>準備ができたらスペースキーを押してください。課題が始まります。</p>, ,NULL,NULL,NULL,NULL
NULL,html-keyboard-response,26,102790,0.0-6.0-1.2,3260097,control,2025/8/8 11:24,2025/8/8 11:28,fixation,NULL,"<p style=""font-size:48px;"">+</p>",NULL,NULL,NULL,NULL,NULL
NULL,html-keyboard-response,27,104826,0.0-6.0-2.2,3260097,control,2025/8/8 11:24,2025/8/8 11:28,rt_trial,2034,"<div id=""fixation"" style=""font-size: 48px;"">+</div>",tab,NULL,rt_trial,main,1760
NULL,html-keyboard-response,28,105341,0.0-6.0-3.2,3260097,control,2025/8/8 11:24,2025/8/8 11:28,white_screen,NULL,,NULL,NULL,NULL,NULL,NULL
NULL,html-keyboard-response,29,105962,0.0-6.0-0.3,3260097,control,2025/8/8 11:24,2025/8/8 11:28,start_screen,620,<p>準備ができたらスペースキーを押してください。課題が始まります。</p>, ,NULL,NULL,NULL,NULL
NULL,html-keyboard-response,30,106977,0.0-6.0-1.3,3260097,control,2025/8/8 11:24,2025/8/8 11:28,fixation,NULL,"<p style=""font-size:48px;"">+</p>",NULL,NULL,NULL,NULL,NULL
NULL,html-keyboard-response,31,110041,0.0-6.0-2.3,3260097,control,2025/8/8 11:24,2025/8/8 11:28,rt_trial,3063,"<div id=""fixation"" style=""font-size: 48px;"">+</div>",tab,NULL,rt_trial,main,2810
NULL,html-keyboard-response,32,110543,0.0-6.0-3.3,3260097,control,2025/8/8 11:24,2025/8/8 11:28,white_screen,NULL,,NULL,NULL,NULL,NULL,NULL
NULL,html-keyboard-response,33,111086,0.0-6.0-0.4,3260097,control,2025/8/8 11:24,2025/8/8 11:28,start_screen,543,<p>準備ができたらスペースキーを押してください。課題が始まります。</p>, ,NULL,NULL,NULL,NULL
NULL,html-keyboard-response,34,112094,0.0-6.0-1.4,3260097,control,2025/8/8 11:24,2025/8/8 11:28,fixation,NULL,"<p style=""font-size:48px;"">+</p>",NULL,NULL,NULL,NULL,NULL
NULL,html-keyboard-response,35,114822,0.0-6.0-2.4,3260097,control,2025/8/8 11:24,2025/8/8 11:28,rt_trial,2727,"<div id=""fixation"" style=""font-size: 48px;"">+</div>",tab,NULL,rt_trial,main,2447
NULL,html-keyboard-response,36,115323,0.0-6.0-3.4,3260097,control,2025/8/8 11:24,2025/8/8 11:28,white_screen,NULL,,NULL,NULL,NULL,NULL,NULL
NULL,html-keyboard-response,37,115834,0.0-6.0-0.5,3260097,control,2025/8/8 11:24,2025/8/8 11:28,start_screen,509,<p>準備ができたらスペースキーを押してください。課題が始まります。</p>, ,NULL,NULL,NULL,NULL
NULL,html-keyboard-response,38,116845,0.0-6.0-1.5,3260097,control,2025/8/8 11:24,2025/8/8 11:28,fixation,NULL,"<p style=""font-size:48px;"">+</p>",NULL,NULL,NULL,NULL,NULL
NULL,html-keyboard-response,39,118505,0.0-6.0-2.5,3260097,control,2025/8/8 11:24,2025/8/8 11:28,rt_trial,1659,"<div id=""fixation"" style=""font-size: 48px;"">+</div>",tab,NULL,rt_trial,main,1366
NULL,html-keyboard-response,40,119007,0.0-6.0-3.5,3260097,control,2025/8/8 11:24,2025/8/8 11:28,white_screen,NULL,,NULL,NULL,NULL,NULL,NULL
NULL,html-keyboard-response,41,119616,0.0-6.0-0.6,3260097,control,2025/8/8 11:24,2025/8/8 11:28,start_screen,608,<p>準備ができたらスペースキーを押してください。課題が始まります。</p>, ,NULL,NULL,NULL,NULL
NULL,html-keyboard-response,42,120621,0.0-6.0-1.6,3260097,control,2025/8/8 11:24,2025/8/8 11:28,fixation,NULL,"<p style=""font-size:48px;"">+</p>",NULL,NULL,NULL,NULL,NULL
NULL,html-keyboard-response,43,122744,0.0-6.0-2.6,3260097,control,2025/8/8 11:24,2025/8/8 11:28,rt_trial,2121,"<div id=""fixation"" style=""font-size: 48px;"">+</div>",tab,NULL,rt_trial,main,1855
NULL,html-keyboard-response,44,123259,0.0-6.0-3.6,3260097,control,2025/8/8 11:24,2025/8/8 11:28,white_screen,NULL,,NULL,NULL,NULL,NULL,NULL
NULL,html-keyboard-response,45,123798,0.0-6.0-0.7,3260097,control,2025/8/8 11:24,2025/8/8 11:28,start_screen,538,<p>準備ができたらスペースキーを押してください。課題が始まります。</p>, ,NULL,NULL,NULL,NULL
NULL,html-keyboard-response,46,124814,0.0-6.0-1.7,3260097,control,2025/8/8 11:24,2025/8/8 11:28,fixation,NULL,"<p style=""font-size:48px;"">+</p>",NULL,NULL,NULL,NULL,NULL
NULL,html-keyboard-response,47,128053,0.0-6.0-2.7,3260097,control,2025/8/8 11:24,2025/8/8 11:28,rt_trial,3239,"<div id=""fixation"" style=""font-size: 48px;"">+</div>",tab,NULL,rt_trial,main,2948
NULL,html-keyboard-response,48,128556,0.0-6.0-3.7,3260097,control,2025/8/8 11:24,2025/8/8 11:28,white_screen,NULL,,NULL,NULL,NULL,NULL,NULL
NULL,html-keyboard-response,49,129110,0.0-6.0-0.8,3260097,control,2025/8/8 11:24,2025/8/8 11:28,start_screen,554,<p>準備ができたらスペースキーを押してください。課題が始まります。</p>, ,NULL,NULL,NULL,NULL
NULL,html-keyboard-response,50,130126,0.0-6.0-1.8,3260097,control,2025/8/8 11:24,2025/8/8 11:28,fixation,NULL,"<p style=""font-size:48px;"">+</p>",NULL,NULL,NULL,NULL,NULL
NULL,html-keyboard-response,51,132175,0.0-6.0-2.8,3260097,control,2025/8/8 11:24,2025/8/8 11:28,rt_trial,2048,"<div id=""fixation"" style=""font-size: 48px;"">+</div>",tab,NULL,rt_trial,main,1761
NULL,html-keyboard-response,52,132676,0.0-6.0-3.8,3260097,control,2025/8/8 11:24,2025/8/8 11:28,white_screen,NULL,,NULL,NULL,NULL,NULL,NULL
NULL,html-keyboard-response,53,133260,0.0-6.0-0.9,3260097,control,2025/8/8 11:24,2025/8/8 11:28,start_screen,583,<p>準備ができたらスペースキーを押してください。課題が始まります。</p>, ,NULL,NULL,NULL,NULL
NULL,html-keyboard-response,54,134276,0.0-6.0-1.9,3260097,control,2025/8/8 11:24,2025/8/8 11:28,fixation,NULL,"<p style=""font-size:48px;"">+</p>",NULL,NULL,NULL,NULL,NULL
NULL,html-keyboard-response,55,136383,0.0-6.0-2.9,3260097,control,2025/8/8 11:24,2025/8/8 11:28,rt_trial,2105,"<div id=""fixation"" style=""font-size: 48px;"">+</div>",tab,NULL,rt_trial,main,1836
NULL,html-keyboard-response,56,136892,0.0-6.0-3.9,3260097,control,2025/8/8 11:24,2025/8/8 11:28,white_screen,NULL,,NULL,NULL,NULL,NULL,NULL
NULL,html-keyboard-response,57,137601,0.0-6.0-0.10,3260097,control,2025/8/8 11:24,2025/8/8 11:28,start_screen,708,<p>準備ができたらスペースキーを押してください。課題が始まります。</p>, ,NULL,NULL,NULL,NULL
NULL,html-keyboard-response,58,138610,0.0-6.0-1.10,3260097,control,2025/8/8 11:24,2025/8/8 11:28,fixation,NULL,"<p style=""font-size:48px;"">+</p>",NULL,NULL,NULL,NULL,NULL
NULL,html-keyboard-response,59,140787,0.0-6.0-2.10,3260097,control,2025/8/8 11:24,2025/8/8 11:28,rt_trial,2176,"<div id=""fixation"" style=""font-size: 48px;"">+</div>",tab,NULL,rt_trial,main,1902
NULL,html-keyboard-response,60,141292,0.0-6.0-3.10,3260097,control,2025/8/8 11:24,2025/8/8 11:28,white_screen,NULL,,NULL,NULL,NULL,NULL,NULL
NULL,html-keyboard-response,61,141801,0.0-6.0-0.11,3260097,control,2025/8/8 11:24,2025/8/8 11:28,start_screen,508,<p>準備ができたらスペースキーを押してください。課題が始まります。</p>, ,NULL,NULL,NULL,NULL
NULL,html-keyboard-response,62,142810,0.0-6.0-1.11,3260097,control,2025/8/8 11:24,2025/8/8 11:28,fixation,NULL,"<p style=""font-size:48px;"">+</p>",NULL,NULL,NULL,NULL,NULL
NULL,html-keyboard-response,63,144876,0.0-6.0-2.11,3260097,control,2025/8/8 11:24,2025/8/8 11:28,rt_trial,2064,"<div id=""fixation"" style=""font-size: 48px;"">+</div>",tab,NULL,rt_trial,main,1787
NULL,html-keyboard-response,64,145390,0.0-6.0-3.11,3260097,control,2025/8/8 11:24,2025/8/8 11:28,white_screen,NULL,,NULL,NULL,NULL,NULL,NULL
NULL,html-keyboard-response,65,145974,0.0-6.0-0.12,3260097,control,2025/8/8 11:24,2025/8/8 11:28,start_screen,582,<p>準備ができたらスペースキーを押してください。課題が始まります。</p>, ,NULL,NULL,NULL,NULL
NULL,html-keyboard-response,66,146978,0.0-6.0-1.12,3260097,control,2025/8/8 11:24,2025/8/8 11:28,fixation,NULL,"<p style=""font-size:48px;"">+</p>",NULL,NULL,NULL,NULL,NULL
NULL,html-keyboard-response,67,148577,0.0-6.0-2.12,3260097,control,2025/8/8 11:24,2025/8/8 11:28,rt_trial,1597,"<div id=""fixation"" style=""font-size: 48px;"">+</div>",tab,NULL,rt_trial,main,1281
NULL,html-keyboard-response,68,149090,0.0-6.0-3.12,3260097,control,2025/8/8 11:24,2025/8/8 11:28,white_screen,NULL,,NULL,NULL,NULL,NULL,NULL
NULL,html-keyboard-response,69,149611,0.0-6.0-0.13,3260097,control,2025/8/8 11:24,2025/8/8 11:28,start_screen,520,<p>準備ができたらスペースキーを押してください。課題が始まります。</p>, ,NULL,NULL,NULL,NULL
NULL,html-keyboard-response,70,150623,0.0-6.0-1.13,3260097,control,2025/8/8 11:24,2025/8/8 11:28,fixation,NULL,"<p style=""font-size:48px;"">+</p>",NULL,NULL,NULL,NULL,NULL
NULL,html-keyboard-response,71,153317,0.0-6.0-2.13,3260097,control,2025/8/8 11:24,2025/8/8 11:28,rt_trial,2693,"<div id=""fixation"" style=""font-size: 48px;"">+</div>",tab,NULL,rt_trial,main,2417
NULL,html-keyboard-response,72,153824,0.0-6.0-3.13,3260097,control,2025/8/8 11:24,2025/8/8 11:28,white_screen,NULL,,NULL,NULL,NULL,NULL,NULL
NULL,html-keyboard-response,73,154324,0.0-6.0-0.14,3260097,control,2025/8/8 11:24,2025/8/8 11:28,start_screen,499,<p>準備ができたらスペースキーを押してください。課題が始まります。</p>, ,NULL,NULL,NULL,NULL
NULL,html-keyboard-response,74,155326,0.0-6.0-1.14,3260097,control,2025/8/8 11:24,2025/8/8 11:28,fixation,NULL,"<p style=""font-size:48px;"">+</p>",NULL,NULL,NULL,NULL,NULL
NULL,html-keyboard-response,75,157617,0.0-6.0-2.14,3260097,control,2025/8/8 11:24,2025/8/8 11:28,rt_trial,2289,"<div id=""fixation"" style=""font-size: 48px;"">+</div>",tab,NULL,rt_trial,main,1927
NULL,html-keyboard-response,76,158122,0.0-6.0-3.14,3260097,control,2025/8/8 11:24,2025/8/8 11:28,white_screen,NULL,,NULL,NULL,NULL,NULL,NULL
NULL,html-keyboard-response,77,158579,0.0-6.0-0.15,3260097,control,2025/8/8 11:24,2025/8/8 11:28,start_screen,456,<p>準備ができたらスペースキーを押してください。課題が始まります。</p>, ,NULL,NULL,NULL,NULL
NULL,html-keyboard-response,78,159592,0.0-6.0-1.15,3260097,control,2025/8/8 11:24,2025/8/8 11:28,fixation,NULL,"<p style=""font-size:48px;"">+</p>",NULL,NULL,NULL,NULL,NULL
NULL,html-keyboard-response,79,162302,0.0-6.0-2.15,3260097,control,2025/8/8 11:24,2025/8/8 11:28,rt_trial,2708,"<div id=""fixation"" style=""font-size: 48px;"">+</div>",tab,NULL,rt_trial,main,2456
NULL,html-keyboard-response,80,162806,0.0-6.0-3.15,3260097,control,2025/8/8 11:24,2025/8/8 11:28,white_screen,NULL,,NULL,NULL,NULL,NULL,NULL
NULL,html-keyboard-response,81,163178,0.0-6.0-0.16,3260097,control,2025/8/8 11:24,2025/8/8 11:28,start_screen,371,<p>準備ができたらスペースキーを押してください。課題が始まります。</p>, ,NULL,NULL,NULL,NULL
NULL,html-keyboard-response,82,164192,0.0-6.0-1.16,3260097,control,2025/8/8 11:24,2025/8/8 11:28,fixation,NULL,"<p style=""font-size:48px;"">+</p>",NULL,NULL,NULL,NULL,NULL
NULL,html-keyboard-response,83,166970,0.0-6.0-2.16,3260097,control,2025/8/8 11:24,2025/8/8 11:28,rt_trial,2777,"<div id=""fixation"" style=""font-size: 48px;"">+</div>",tab,NULL,rt_trial,main,2509
NULL,html-keyboard-response,84,167473,0.0-6.0-3.16,3260097,control,2025/8/8 11:24,2025/8/8 11:28,white_screen,NULL,,NULL,NULL,NULL,NULL,NULL
NULL,html-keyboard-response,85,168087,0.0-6.0-0.17,3260097,control,2025/8/8 11:24,2025/8/8 11:28,start_screen,612,<p>準備ができたらスペースキーを押してください。課題が始まります。</p>, ,NULL,NULL,NULL,NULL
NULL,html-keyboard-response,86,169092,0.0-6.0-1.17,3260097,control,2025/8/8 11:24,2025/8/8 11:28,fixation,NULL,"<p style=""font-size:48px;"">+</p>",NULL,NULL,NULL,NULL,NULL
NULL,html-keyboard-response,87,171904,0.0-6.0-2.17,3260097,control,2025/8/8 11:24,2025/8/8 11:28,rt_trial,2810,"<div id=""fixation"" style=""font-size: 48px;"">+</div>",tab,NULL,rt_trial,main,2574
NULL,html-keyboard-response,88,172410,0.0-6.0-3.17,3260097,control,2025/8/8 11:24,2025/8/8 11:28,white_screen,NULL,,NULL,NULL,NULL,NULL,NULL
NULL,html-keyboard-response,89,173015,0.0-6.0-0.18,3260097,control,2025/8/8 11:24,2025/8/8 11:28,start_screen,603,<p>準備ができたらスペースキーを押してください。課題が始まります。</p>, ,NULL,NULL,NULL,NULL
NULL,html-keyboard-response,90,174026,0.0-6.0-1.18,3260097,control,2025/8/8 11:24,2025/8/8 11:28,fixation,NULL,"<p style=""font-size:48px;"">+</p>",NULL,NULL,NULL,NULL,NULL
NULL,html-keyboard-response,91,176496,0.0-6.0-2.18,3260097,control,2025/8/8 11:24,2025/8/8 11:28,rt_trial,2469,"<div id=""fixation"" style=""font-size: 48px;"">+</div>",tab,NULL,rt_trial,main,2193
NULL,html-keyboard-response,92,177007,0.0-6.0-3.18,3260097,control,2025/8/8 11:24,2025/8/8 11:28,white_screen,NULL,,NULL,NULL,NULL,NULL,NULL
NULL,html-keyboard-response,93,177590,0.0-6.0-0.19,3260097,control,2025/8/8 11:24,2025/8/8 11:28,start_screen,582,<p>準備ができたらスペースキーを押してください。課題が始まります。</p>, ,NULL,NULL,NULL,NULL
NULL,html-keyboard-response,94,178607,0.0-6.0-1.19,3260097,control,2025/8/8 11:24,2025/8/8 11:28,fixation,NULL,"<p style=""font-size:48px;"">+</p>",NULL,NULL,NULL,NULL,NULL
NULL,html-keyboard-response,95,181281,0.0-6.0-2.19,3260097,control,2025/8/8 11:24,2025/8/8 11:28,rt_trial,2673,"<div id=""fixation"" style=""font-size: 48px;"">+</div>",tab,NULL,rt_trial,main,2396
NULL,html-keyboard-response,96,181790,0.0-6.0-3.19,3260097,control,2025/8/8 11:24,2025/8/8 11:28,white_screen,NULL,,NULL,NULL,NULL,NULL,NULL
NULL,html-keyboard-response,97,182338,0.0-6.0-0.20,3260097,control,2025/8/8 11:24,2025/8/8 11:28,start_screen,547,<p>準備ができたらスペースキーを押してください。課題が始まります。</p>, ,NULL,NULL,NULL,NULL
NULL,html-keyboard-response,98,183342,0.0-6.0-1.20,3260097,control,2025/8/8 11:24,2025/8/8 11:28,fixation,NULL,"<p style=""font-size:48px;"">+</p>",NULL,NULL,NULL,NULL,NULL
NULL,html-keyboard-response,99,185016,0.0-6.0-2.20,3260097,control,2025/8/8 11:24,2025/8/8 11:28,rt_trial,1671,"<div id=""fixation"" style=""font-size: 48px;"">+</div>",tab,NULL,rt_trial,main,1364
NULL,html-keyboard-response,100,185523,0.0-6.0-3.20,3260097,control,2025/8/8 11:24,2025/8/8 11:28,white_screen,NULL,,NULL,NULL,NULL,NULL,NULL
NULL,html-keyboard-response,101,186068,0.0-6.0-0.21,3260097,control,2025/8/8 11:24,2025/8/8 11:28,start_screen,544,<p>準備ができたらスペースキーを押してください。課題が始まります。</p>, ,NULL,NULL,NULL,NULL
NULL,html-keyboard-response,102,187076,0.0-6.0-1.21,3260097,control,2025/8/8 11:24,2025/8/8 11:28,fixation,NULL,"<p style=""font-size:48px;"">+</p>",NULL,NULL,NULL,NULL,NULL
NULL,html-keyboard-response,103,190076,0.0-6.0-2.21,3260097,control,2025/8/8 11:24,2025/8/8 11:28,rt_trial,2999,"<div id=""fixation"" style=""font-size: 48px;"">+</div>",tab,NULL,rt_trial,main,2748
NULL,html-keyboard-response,104,190593,0.0-6.0-3.21,3260097,control,2025/8/8 11:24,2025/8/8 11:28,white_screen,NULL,,NULL,NULL,NULL,NULL,NULL
NULL,html-keyboard-response,105,191129,0.0-6.0-0.22,3260097,control,2025/8/8 11:24,2025/8/8 11:28,start_screen,535,<p>準備ができたらスペースキーを押してください。課題が始まります。</p>, ,NULL,NULL,NULL,NULL
NULL,html-keyboard-response,106,192142,0.0-6.0-1.22,3260097,control,2025/8/8 11:24,2025/8/8 11:28,fixation,NULL,"<p style=""font-size:48px;"">+</p>",NULL,NULL,NULL,NULL,NULL
NULL,html-keyboard-response,107,194864,0.0-6.0-2.22,3260097,control,2025/8/8 11:24,2025/8/8 11:28,rt_trial,2721,"<div id=""fixation"" style=""font-size: 48px;"">+</div>",tab,NULL,rt_trial,main,2476
NULL,html-keyboard-response,108,195375,0.0-6.0-3.22,3260097,control,2025/8/8 11:24,2025/8/8 11:28,white_screen,NULL,,NULL,NULL,NULL,NULL,NULL
NULL,html-keyboard-response,109,195812,0.0-6.0-0.23,3260097,control,2025/8/8 11:24,2025/8/8 11:28,start_screen,435,<p>準備ができたらスペースキーを押してください。課題が始まります。</p>, ,NULL,NULL,NULL,NULL
NULL,html-keyboard-response,110,196822,0.0-6.0-1.23,3260097,control,2025/8/8 11:24,2025/8/8 11:28,fixation,NULL,"<p style=""font-size:48px;"">+</p>",NULL,NULL,NULL,NULL,NULL
NULL,html-keyboard-response,111,199536,0.0-6.0-2.23,3260097,control,2025/8/8 11:24,2025/8/8 11:28,rt_trial,2713,"<div id=""fixation"" style=""font-size: 48px;"">+</div>",tab,NULL,rt_trial,main,2450
NULL,html-keyboard-response,112,200041,0.0-6.0-3.23,3260097,control,2025/8/8 11:24,2025/8/8 11:28,white_screen,NULL,,NULL,NULL,NULL,NULL,NULL
NULL,html-keyboard-response,113,200539,0.0-6.0-0.24,3260097,control,2025/8/8 11:24,2025/8/8 11:28,start_screen,497,<p>準備ができたらスペースキーを押してください。課題が始まります。</p>, ,NULL,NULL,NULL,NULL
NULL,html-keyboard-response,114,201545,0.0-6.0-1.24,3260097,control,2025/8/8 11:24,2025/8/8 11:28,fixation,NULL,"<p style=""font-size:48px;"">+</p>",NULL,NULL,NULL,NULL,NULL
NULL,html-keyboard-response,115,203039,0.0-6.0-2.24,3260097,control,2025/8/8 11:24,2025/8/8 11:28,rt_trial,1492,"<div id=""fixation"" style=""font-size: 48px;"">+</div>",tab,NULL,rt_trial,main,1229
NULL,html-keyboard-response,116,203542,0.0-6.0-3.24,3260097,control,2025/8/8 11:24,2025/8/8 11:28,white_screen,NULL,,NULL,NULL,NULL,NULL,NULL
NULL,html-keyboard-response,117,204094,0.0-6.0-0.25,3260097,control,2025/8/8 11:24,2025/8/8 11:28,start_screen,551,<p>準備ができたらスペースキーを押してください。課題が始まります。</p>, ,NULL,NULL,NULL,NULL
NULL,html-keyboard-response,118,205106,0.0-6.0-1.25,3260097,control,2025/8/8 11:24,2025/8/8 11:28,fixation,NULL,"<p style=""font-size:48px;"">+</p>",NULL,NULL,NULL,NULL,NULL
NULL,html-keyboard-response,119,206693,0.0-6.0-2.25,3260097,control,2025/8/8 11:24,2025/8/8 11:28,rt_trial,1585,"<div id=""fixation"" style=""font-size: 48px;"">+</div>",tab,NULL,rt_trial,main,1322
NULL,html-keyboard-response,120,207209,0.0-6.0-3.25,3260097,control,2025/8/8 11:24,2025/8/8 11:28,white_screen,NULL,,NULL,NULL,NULL,NULL,NULL
NULL,html-keyboard-response,121,207724,0.0-6.0-0.26,3260097,control,2025/8/8 11:24,2025/8/8 11:28,start_screen,514,<p>準備ができたらスペースキーを押してください。課題が始まります。</p>, ,NULL,NULL,NULL,NULL
NULL,html-keyboard-response,122,208727,0.0-6.0-1.26,3260097,control,2025/8/8 11:24,2025/8/8 11:28,fixation,NULL,"<p style=""font-size:48px;"">+</p>",NULL,NULL,NULL,NULL,NULL
NULL,html-keyboard-response,123,210899,0.0-6.0-2.26,3260097,control,2025/8/8 11:24,2025/8/8 11:28,rt_trial,2170,"<div id=""fixation"" style=""font-size: 48px;"">+</div>",tab,NULL,rt_trial,main,1931
NULL,html-keyboard-response,124,211410,0.0-6.0-3.26,3260097,control,2025/8/8 11:24,2025/8/8 11:28,white_screen,NULL,,NULL,NULL,NULL,NULL,NULL
NULL,html-keyboard-response,125,211826,0.0-6.0-0.27,3260097,control,2025/8/8 11:24,2025/8/8 11:28,start_screen,415,<p>準備ができたらスペースキーを押してください。課題が始まります。</p>, ,NULL,NULL,NULL,NULL
NULL,html-keyboard-response,126,212841,0.0-6.0-1.27,3260097,control,2025/8/8 11:24,2025/8/8 11:28,fixation,NULL,"<p style=""font-size:48px;"">+</p>",NULL,NULL,NULL,NULL,NULL
NULL,html-keyboard-response,127,214313,0.0-6.0-2.27,3260097,control,2025/8/8 11:24,2025/8/8 11:28,rt_trial,1470,"<div id=""fixation"" style=""font-size: 48px;"">+</div>",tab,NULL,rt_trial,main,1190
NULL,html-keyboard-response,128,214825,0.0-6.0-3.27,3260097,control,2025/8/8 11:24,2025/8/8 11:28,white_screen,NULL,,NULL,NULL,NULL,NULL,NULL
NULL,html-keyboard-response,129,215193,0.0-6.0-0.28,3260097,control,2025/8/8 11:24,2025/8/8 11:28,start_screen,367,<p>準備ができたらスペースキーを押してください。課題が始まります。</p>, ,NULL,NULL,NULL,NULL
NULL,html-keyboard-response,130,216209,0.0-6.0-1.28,3260097,control,2025/8/8 11:24,2025/8/8 11:28,fixation,NULL,"<p style=""font-size:48px;"">+</p>",NULL,NULL,NULL,NULL,NULL
NULL,html-keyboard-response,131,219220,0.0-6.0-2.28,3260097,control,2025/8/8 11:24,2025/8/8 11:28,rt_trial,3009,"<div id=""fixation"" style=""font-size: 48px;"">+</div>",tab,NULL,rt_trial,main,2656
NULL,html-keyboard-response,132,219722,0.0-6.0-3.28,3260097,control,2025/8/8 11:24,2025/8/8 11:28,white_screen,NULL,,NULL,NULL,NULL,NULL,NULL
NULL,html-keyboard-response,133,220090,0.0-6.0-0.29,3260097,control,2025/8/8 11:24,2025/8/8 11:28,start_screen,367,<p>準備ができたらスペースキーを押してください。課題が始まります。</p>, ,NULL,NULL,NULL,NULL
NULL,html-keyboard-response,134,221092,0.0-6.0-1.29,3260097,control,2025/8/8 11:24,2025/8/8 11:28,fixation,NULL,"<p style=""font-size:48px;"">+</p>",NULL,NULL,NULL,NULL,NULL
NULL,html-keyboard-response,135,222520,0.0-6.0-2.29,3260097,control,2025/8/8 11:24,2025/8/8 11:28,rt_trial,1426,"<div id=""fixation"" style=""font-size: 48px;"">+</div>",tab,NULL,rt_trial,main,1118
NULL,html-keyboard-response,136,223023,0.0-6.0-3.29,3260097,control,2025/8/8 11:24,2025/8/8 11:28,white_screen,NULL,,NULL,NULL,NULL,NULL,NULL
NULL,html-keyboard-response,137,226326,0.0-7.0,3260097,control,2025/8/8 11:24,2025/8/8 11:28,task_description,3301,"<p style=""text-align: left"">おつかれさまでした。</p>
        <p><br><br></p>
        <p style=""text-align: left"">次に、本課題の際に行ってもらう課題の説明に移ります。</p>
        <p style=""text-align: left""><strong>準備ができたらスペースキーを押してください。</strong></p>", ,NULL,NULL,NULL,NULL
1,preload,0,169,0.0-0.0,367640,outline,2025/8/8 11:25,2025/8/8 11:28,NULL,NULL,NULL,NULL,NULL,NULL,NULL,NULL
1,fullscreen,1,2678,0.0-1.0,367640,outline,2025/8/8 11:25,2025/8/8 11:28,FullScreen,NULL,NULL,NULL,NULL,NULL,NULL,NULL
NULL,html-button-response,2,6769,0.0-2.0,367640,outline,2025/8/8 11:25,2025/8/8 11:28,check_volume,4090,"
        <p style=""text-align: left"">はじめに、この後の実験で使う音声の音量を調整してください。</p>
        <p style=""text-align: left"">以下に提示されている「音を流す」ボタンを押すと音（短いビープ音）が流れますので、</p>
        <p style=""text-align: left"">適切な音量となるようにPCやイヤホンの設定をお願いします。</p>
        <p><button id=""play-sound-button"">音を流す</button></p>
        <p style=""text-align: left""><b>この音は以降も使うので、ここで設定した内容は、この研究のすべての実験が終わるまで変更しないでください。</b></p>
        <p><br></p>
    ",0,NULL,NULL,NULL,NULL
NULL,instructions,3,24857,0.0-3.0,367640,outline,2025/8/8 11:25,2025/8/8 11:28,main_task_inst_tl,18087,NULL,NULL,Array,NULL,NULL,NULL
NULL,html-keyboard-response,4,26351,0.0-4.0-0.0,367640,outline,2025/8/8 11:25,2025/8/8 11:28,start_screen,1493,<p>準備ができたらスペースキーを押してください。課題が始まります。</p>, ,NULL,NULL,NULL,NULL
NULL,html-keyboard-response,5,27364,0.0-4.0-1.0,367640,outline,2025/8/8 11:25,2025/8/8 11:28,fixation,NULL,"<p style=""font-size:48px;"">+</p>",NULL,NULL,NULL,NULL,NULL
NULL,html-keyboard-response,6,28930,0.0-4.0-2.0,367640,outline,2025/8/8 11:25,2025/8/8 11:28,rt_trial,1565,"<div id=""fixation"" style=""font-size: 48px;"">+</div>",tab,NULL,rt_trial,practice,1193
NULL,html-keyboard-response,7,29445,0.0-4.0-3.0,367640,outline,2025/8/8 11:25,2025/8/8 11:28,white_screen,NULL,,NULL,NULL,NULL,NULL,NULL
NULL,html-keyboard-response,8,31002,0.0-4.0-0.1,367640,outline,2025/8/8 11:25,2025/8/8 11:28,start_screen,1556,<p>準備ができたらスペースキーを押してください。課題が始まります。</p>, ,NULL,NULL,NULL,NULL
NULL,html-keyboard-response,9,32015,0.0-4.0-1.1,367640,outline,2025/8/8 11:25,2025/8/8 11:28,fixation,NULL,"<p style=""font-size:48px;"">+</p>",NULL,NULL,NULL,NULL,NULL
NULL,html-keyboard-response,10,35016,0.0-4.0-2.1,367640,outline,2025/8/8 11:25,2025/8/8 11:28,rt_trial,3001,"<div id=""fixation"" style=""font-size: 48px;"">+</div>",tab,NULL,rt_trial,practice,2683
NULL,html-keyboard-response,11,35517,0.0-4.0-3.1,367640,outline,2025/8/8 11:25,2025/8/8 11:28,white_screen,NULL,,NULL,NULL,NULL,NULL,NULL
NULL,html-keyboard-response,12,35952,0.0-4.0-0.2,367640,outline,2025/8/8 11:25,2025/8/8 11:28,start_screen,434,<p>準備ができたらスペースキーを押してください。課題が始まります。</p>, ,NULL,NULL,NULL,NULL
NULL,html-keyboard-response,13,36958,0.0-4.0-1.2,367640,outline,2025/8/8 11:25,2025/8/8 11:28,fixation,NULL,"<p style=""font-size:48px;"">+</p>",NULL,NULL,NULL,NULL,NULL
NULL,html-keyboard-response,14,39171,0.0-4.0-2.2,367640,outline,2025/8/8 11:25,2025/8/8 11:28,rt_trial,2213,"<div id=""fixation"" style=""font-size: 48px;"">+</div>",tab,NULL,rt_trial,practice,1887
NULL,html-keyboard-response,15,39688,0.0-4.0-3.2,367640,outline,2025/8/8 11:25,2025/8/8 11:28,white_screen,NULL,,NULL,NULL,NULL,NULL,NULL
NULL,html-keyboard-response,16,40033,0.0-5.0,367640,outline,2025/8/8 11:25,2025/8/8 11:28,NULL,344,"<p style=""text-align: left"">練習は以上です。</p>
               <p style=""text-align: left"">この後、本番課題に入ります。</p>
               <p style=""text-align: left"">ビープ音の音量が気になる方は、パソコンの音量設定をここで変更ください。</p>
               <p style=""text-align: left""><strong>本番も、ビープ音が聞こえ次第すぐにTabキーを押してください。</strong></p>
               <p><br><br></p>
               <p><strong>準備ができたらスペースキーを押してください。</strong></p>", ,NULL,NULL,NULL,NULL
NULL,html-keyboard-response,17,41495,0.0-6.0-0.0,367640,outline,2025/8/8 11:25,2025/8/8 11:28,start_screen,1461,<p>準備ができたらスペースキーを押してください。課題が始まります。</p>, ,NULL,NULL,NULL,NULL
NULL,html-keyboard-response,18,42517,0.0-6.0-1.0,367640,outline,2025/8/8 11:25,2025/8/8 11:28,fixation,NULL,"<p style=""font-size:48px;"">+</p>",NULL,NULL,NULL,NULL,NULL
NULL,html-keyboard-response,19,44672,0.0-6.0-2.0,367640,outline,2025/8/8 11:25,2025/8/8 11:28,rt_trial,2154,"<div id=""fixation"" style=""font-size: 48px;"">+</div>",tab,NULL,rt_trial,main,1802
NULL,html-keyboard-response,20,45182,0.0-6.0-3.0,367640,outline,2025/8/8 11:25,2025/8/8 11:28,white_screen,NULL,,NULL,NULL,NULL,NULL,NULL
NULL,html-keyboard-response,21,45623,0.0-6.0-0.1,367640,outline,2025/8/8 11:25,2025/8/8 11:28,start_screen,440,<p>準備ができたらスペースキーを押してください。課題が始まります。</p>, ,NULL,NULL,NULL,NULL
NULL,html-keyboard-response,22,46637,0.0-6.0-1.1,367640,outline,2025/8/8 11:25,2025/8/8 11:28,fixation,NULL,"<p style=""font-size:48px;"">+</p>",NULL,NULL,NULL,NULL,NULL
NULL,html-keyboard-response,23,49300,0.0-6.0-2.1,367640,outline,2025/8/8 11:25,2025/8/8 11:28,rt_trial,2663,"<div id=""fixation"" style=""font-size: 48px;"">+</div>",tab,NULL,rt_trial,main,2356
NULL,html-keyboard-response,24,49808,0.0-6.0-3.1,367640,outline,2025/8/8 11:25,2025/8/8 11:28,white_screen,NULL,,NULL,NULL,NULL,NULL,NULL
NULL,html-keyboard-response,25,50196,0.0-6.0-0.2,367640,outline,2025/8/8 11:25,2025/8/8 11:28,start_screen,387,<p>準備ができたらスペースキーを押してください。課題が始まります。</p>, ,NULL,NULL,NULL,NULL
NULL,html-keyboard-response,26,51207,0.0-6.0-1.2,367640,outline,2025/8/8 11:25,2025/8/8 11:28,fixation,NULL,"<p style=""font-size:48px;"">+</p>",NULL,NULL,NULL,NULL,NULL
NULL,html-keyboard-response,27,53599,0.0-6.0-2.2,367640,outline,2025/8/8 11:25,2025/8/8 11:28,rt_trial,2391,"<div id=""fixation"" style=""font-size: 48px;"">+</div>",tab,NULL,rt_trial,main,2070
NULL,html-keyboard-response,28,54100,0.0-6.0-3.2,367640,outline,2025/8/8 11:25,2025/8/8 11:28,white_screen,NULL,,NULL,NULL,NULL,NULL,NULL
NULL,html-keyboard-response,29,54447,0.0-6.0-0.3,367640,outline,2025/8/8 11:25,2025/8/8 11:28,start_screen,346,<p>準備ができたらスペースキーを押してください。課題が始まります。</p>, ,NULL,NULL,NULL,NULL
NULL,html-keyboard-response,30,55457,0.0-6.0-1.3,367640,outline,2025/8/8 11:25,2025/8/8 11:28,fixation,NULL,"<p style=""font-size:48px;"">+</p>",NULL,NULL,NULL,NULL,NULL
NULL,html-keyboard-response,31,58672,0.0-6.0-2.3,367640,outline,2025/8/8 11:25,2025/8/8 11:28,rt_trial,3214,"<div id=""fixation"" style=""font-size: 48px;"">+</div>",tab,NULL,rt_trial,main,2871
NULL,html-keyboard-response,32,59178,0.0-6.0-3.3,367640,outline,2025/8/8 11:25,2025/8/8 11:28,white_screen,NULL,,NULL,NULL,NULL,NULL,NULL
NULL,html-keyboard-response,33,59542,0.0-6.0-0.4,367640,outline,2025/8/8 11:25,2025/8/8 11:28,start_screen,363,<p>準備ができたらスペースキーを押してください。課題が始まります。</p>, ,NULL,NULL,NULL,NULL
NULL,html-keyboard-response,34,60558,0.0-6.0-1.4,367640,outline,2025/8/8 11:25,2025/8/8 11:28,fixation,NULL,"<p style=""font-size:48px;"">+</p>",NULL,NULL,NULL,NULL,NULL
NULL,html-keyboard-response,35,62904,0.0-6.0-2.4,367640,outline,2025/8/8 11:25,2025/8/8 11:28,rt_trial,2345,"<div id=""fixation"" style=""font-size: 48px;"">+</div>",tab,NULL,rt_trial,main,2035
NULL,html-keyboard-response,36,63408,0.0-6.0-3.4,367640,outline,2025/8/8 11:25,2025/8/8 11:28,white_screen,NULL,,NULL,NULL,NULL,NULL,NULL
NULL,html-keyboard-response,37,63717,0.0-6.0-0.5,367640,outline,2025/8/8 11:25,2025/8/8 11:28,start_screen,309,<p>準備ができたらスペースキーを押してください。課題が始まります。</p>, ,NULL,NULL,NULL,NULL
NULL,html-keyboard-response,38,64737,0.0-6.0-1.5,367640,outline,2025/8/8 11:25,2025/8/8 11:28,fixation,NULL,"<p style=""font-size:48px;"">+</p>",NULL,NULL,NULL,NULL,NULL
NULL,html-keyboard-response,39,67572,0.0-6.0-2.5,367640,outline,2025/8/8 11:25,2025/8/8 11:28,rt_trial,2834,"<div id=""fixation"" style=""font-size: 48px;"">+</div>",tab,NULL,rt_trial,main,2529
NULL,html-keyboard-response,40,68072,0.0-6.0-3.5,367640,outline,2025/8/8 11:25,2025/8/8 11:28,white_screen,NULL,,NULL,NULL,NULL,NULL,NULL
NULL,html-keyboard-response,41,68415,0.0-6.0-0.6,367640,outline,2025/8/8 11:25,2025/8/8 11:28,start_screen,342,<p>準備ができたらスペースキーを押してください。課題が始まります。</p>, ,NULL,NULL,NULL,NULL
NULL,html-keyboard-response,42,69417,0.0-6.0-1.6,367640,outline,2025/8/8 11:25,2025/8/8 11:28,fixation,NULL,"<p style=""font-size:48px;"">+</p>",NULL,NULL,NULL,NULL,NULL
NULL,html-keyboard-response,43,71194,0.0-6.0-2.6,367640,outline,2025/8/8 11:25,2025/8/8 11:28,rt_trial,1776,"<div id=""fixation"" style=""font-size: 48px;"">+</div>",tab,NULL,rt_trial,main,1422
NULL,html-keyboard-response,44,71697,0.0-6.0-3.6,367640,outline,2025/8/8 11:25,2025/8/8 11:28,white_screen,NULL,,NULL,NULL,NULL,NULL,NULL
NULL,html-keyboard-response,45,72022,0.0-6.0-0.7,367640,outline,2025/8/8 11:25,2025/8/8 11:28,start_screen,324,<p>準備ができたらスペースキーを押してください。課題が始まります。</p>, ,NULL,NULL,NULL,NULL
NULL,html-keyboard-response,46,73037,0.0-6.0-1.7,367640,outline,2025/8/8 11:25,2025/8/8 11:28,fixation,NULL,"<p style=""font-size:48px;"">+</p>",NULL,NULL,NULL,NULL,NULL
NULL,html-keyboard-response,47,75990,0.0-6.0-2.7,367640,outline,2025/8/8 11:25,2025/8/8 11:28,rt_trial,2953,"<div id=""fixation"" style=""font-size: 48px;"">+</div>",tab,NULL,rt_trial,main,2631
NULL,html-keyboard-response,48,76507,0.0-6.0-3.7,367640,outline,2025/8/8 11:25,2025/8/8 11:28,white_screen,NULL,,NULL,NULL,NULL,NULL,NULL
NULL,html-keyboard-response,49,76884,0.0-6.0-0.8,367640,outline,2025/8/8 11:25,2025/8/8 11:28,start_screen,376,<p>準備ができたらスペースキーを押してください。課題が始まります。</p>, ,NULL,NULL,NULL,NULL
NULL,html-keyboard-response,50,77887,0.0-6.0-1.8,367640,outline,2025/8/8 11:25,2025/8/8 11:28,fixation,NULL,"<p style=""font-size:48px;"">+</p>",NULL,NULL,NULL,NULL,NULL
NULL,html-keyboard-response,51,79587,0.0-6.0-2.8,367640,outline,2025/8/8 11:25,2025/8/8 11:28,rt_trial,1699,"<div id=""fixation"" style=""font-size: 48px;"">+</div>",tab,NULL,rt_trial,main,1355
NULL,html-keyboard-response,52,80097,0.0-6.0-3.8,367640,outline,2025/8/8 11:25,2025/8/8 11:28,white_screen,NULL,,NULL,NULL,NULL,NULL,NULL
NULL,html-keyboard-response,53,80482,0.0-6.0-0.9,367640,outline,2025/8/8 11:25,2025/8/8 11:28,start_screen,385,<p>準備ができたらスペースキーを押してください。課題が始まります。</p>, ,NULL,NULL,NULL,NULL
NULL,html-keyboard-response,54,81485,0.0-6.0-1.9,367640,outline,2025/8/8 11:25,2025/8/8 11:28,fixation,NULL,"<p style=""font-size:48px;"">+</p>",NULL,NULL,NULL,NULL,NULL
NULL,html-keyboard-response,55,84679,0.0-6.0-2.9,367640,outline,2025/8/8 11:25,2025/8/8 11:28,rt_trial,3193,"<div id=""fixation"" style=""font-size: 48px;"">+</div>",tab,NULL,rt_trial,main,2836
NULL,html-keyboard-response,56,85187,0.0-6.0-3.9,367640,outline,2025/8/8 11:25,2025/8/8 11:28,white_screen,NULL,,NULL,NULL,NULL,NULL,NULL
NULL,html-keyboard-response,57,85671,0.0-6.0-0.10,367640,outline,2025/8/8 11:25,2025/8/8 11:28,start_screen,484,<p>準備ができたらスペースキーを押してください。課題が始まります。</p>, ,NULL,NULL,NULL,NULL
NULL,html-keyboard-response,58,86677,0.0-6.0-1.10,367640,outline,2025/8/8 11:25,2025/8/8 11:28,fixation,NULL,"<p style=""font-size:48px;"">+</p>",NULL,NULL,NULL,NULL,NULL
NULL,html-keyboard-response,59,88418,0.0-6.0-2.10,367640,outline,2025/8/8 11:25,2025/8/8 11:28,rt_trial,1739,"<div id=""fixation"" style=""font-size: 48px;"">+</div>",tab,NULL,rt_trial,main,1249
NULL,html-keyboard-response,60,88927,0.0-6.0-3.10,367640,outline,2025/8/8 11:25,2025/8/8 11:28,white_screen,NULL,,NULL,NULL,NULL,NULL,NULL
NULL,html-keyboard-response,61,89249,0.0-6.0-0.11,367640,outline,2025/8/8 11:25,2025/8/8 11:28,start_screen,322,<p>準備ができたらスペースキーを押してください。課題が始まります。</p>, ,NULL,NULL,NULL,NULL
NULL,html-keyboard-response,62,90252,0.0-6.0-1.11,367640,outline,2025/8/8 11:25,2025/8/8 11:28,fixation,NULL,"<p style=""font-size:48px;"">+</p>",NULL,NULL,NULL,NULL,NULL
NULL,html-keyboard-response,63,92937,0.0-6.0-2.11,367640,outline,2025/8/8 11:25,2025/8/8 11:28,rt_trial,2684,"<div id=""fixation"" style=""font-size: 48px;"">+</div>",tab,NULL,rt_trial,main,2347
NULL,html-keyboard-response,64,93458,0.0-6.0-3.11,367640,outline,2025/8/8 11:25,2025/8/8 11:28,white_screen,NULL,,NULL,NULL,NULL,NULL,NULL
NULL,html-keyboard-response,65,93781,0.0-6.0-0.12,367640,outline,2025/8/8 11:25,2025/8/8 11:28,start_screen,323,<p>準備ができたらスペースキーを押してください。課題が始まります。</p>, ,NULL,NULL,NULL,NULL
NULL,html-keyboard-response,66,94798,0.0-6.0-1.12,367640,outline,2025/8/8 11:25,2025/8/8 11:28,fixation,NULL,"<p style=""font-size:48px;"">+</p>",NULL,NULL,NULL,NULL,NULL
NULL,html-keyboard-response,67,97750,0.0-6.0-2.12,367640,outline,2025/8/8 11:25,2025/8/8 11:28,rt_trial,2951,"<div id=""fixation"" style=""font-size: 48px;"">+</div>",tab,NULL,rt_trial,main,2611
NULL,html-keyboard-response,68,98257,0.0-6.0-3.12,367640,outline,2025/8/8 11:25,2025/8/8 11:28,white_screen,NULL,,NULL,NULL,NULL,NULL,NULL
NULL,html-keyboard-response,69,98526,0.0-6.0-0.13,367640,outline,2025/8/8 11:25,2025/8/8 11:28,start_screen,268,<p>準備ができたらスペースキーを押してください。課題が始まります。</p>, ,NULL,NULL,NULL,NULL
NULL,html-keyboard-response,70,99534,0.0-6.0-1.13,367640,outline,2025/8/8 11:25,2025/8/8 11:28,fixation,NULL,"<p style=""font-size:48px;"">+</p>",NULL,NULL,NULL,NULL,NULL
NULL,html-keyboard-response,71,102116,0.0-6.0-2.13,367640,outline,2025/8/8 11:25,2025/8/8 11:28,rt_trial,2582,"<div id=""fixation"" style=""font-size: 48px;"">+</div>",tab,NULL,rt_trial,main,2283
NULL,html-keyboard-response,72,102617,0.0-6.0-3.13,367640,outline,2025/8/8 11:25,2025/8/8 11:28,white_screen,NULL,,NULL,NULL,NULL,NULL,NULL
NULL,html-keyboard-response,73,102926,0.0-6.0-0.14,367640,outline,2025/8/8 11:25,2025/8/8 11:28,start_screen,308,<p>準備ができたらスペースキーを押してください。課題が始まります。</p>, ,NULL,NULL,NULL,NULL
NULL,html-keyboard-response,74,103938,0.0-6.0-1.14,367640,outline,2025/8/8 11:25,2025/8/8 11:28,fixation,NULL,"<p style=""font-size:48px;"">+</p>",NULL,NULL,NULL,NULL,NULL
NULL,html-keyboard-response,75,106319,0.0-6.0-2.14,367640,outline,2025/8/8 11:25,2025/8/8 11:28,rt_trial,2381,"<div id=""fixation"" style=""font-size: 48px;"">+</div>",tab,NULL,rt_trial,main,2058
NULL,html-keyboard-response,76,106828,0.0-6.0-3.14,367640,outline,2025/8/8 11:25,2025/8/8 11:28,white_screen,NULL,,NULL,NULL,NULL,NULL,NULL
NULL,html-keyboard-response,77,107082,0.0-6.0-0.15,367640,outline,2025/8/8 11:25,2025/8/8 11:28,start_screen,253,<p>準備ができたらスペースキーを押してください。課題が始まります。</p>, ,NULL,NULL,NULL,NULL
NULL,html-keyboard-response,78,108092,0.0-6.0-1.15,367640,outline,2025/8/8 11:25,2025/8/8 11:28,fixation,NULL,"<p style=""font-size:48px;"">+</p>",NULL,NULL,NULL,NULL,NULL
NULL,html-keyboard-response,79,109655,0.0-6.0-2.15,367640,outline,2025/8/8 11:25,2025/8/8 11:28,rt_trial,1563,"<div id=""fixation"" style=""font-size: 48px;"">+</div>",tab,NULL,rt_trial,main,1175
NULL,html-keyboard-response,80,110162,0.0-6.0-3.15,367640,outline,2025/8/8 11:25,2025/8/8 11:28,white_screen,NULL,,NULL,NULL,NULL,NULL,NULL
NULL,html-keyboard-response,81,110365,0.0-6.0-0.16,367640,outline,2025/8/8 11:25,2025/8/8 11:28,start_screen,202,<p>準備ができたらスペースキーを押してください。課題が始まります。</p>, ,NULL,NULL,NULL,NULL
NULL,html-keyboard-response,82,111369,0.0-6.0-1.16,367640,outline,2025/8/8 11:25,2025/8/8 11:28,fixation,NULL,"<p style=""font-size:48px;"">+</p>",NULL,NULL,NULL,NULL,NULL
NULL,html-keyboard-response,83,113245,0.0-6.0-2.16,367640,outline,2025/8/8 11:25,2025/8/8 11:28,rt_trial,1876,"<div id=""fixation"" style=""font-size: 48px;"">+</div>",tab,NULL,rt_trial,main,1544
NULL,html-keyboard-response,84,113747,0.0-6.0-3.16,367640,outline,2025/8/8 11:25,2025/8/8 11:28,white_screen,NULL,,NULL,NULL,NULL,NULL,NULL
NULL,html-keyboard-response,85,113861,0.0-6.0-0.17,367640,outline,2025/8/8 11:25,2025/8/8 11:28,start_screen,113,<p>準備ができたらスペースキーを押してください。課題が始まります。</p>, ,NULL,NULL,NULL,NULL
NULL,html-keyboard-response,86,114867,0.0-6.0-1.17,367640,outline,2025/8/8 11:25,2025/8/8 11:28,fixation,NULL,"<p style=""font-size:48px;"">+</p>",NULL,NULL,NULL,NULL,NULL
NULL,html-keyboard-response,87,116356,0.0-6.0-2.17,367640,outline,2025/8/8 11:25,2025/8/8 11:28,rt_trial,1488,"<div id=""fixation"" style=""font-size: 48px;"">+</div>",tab,NULL,rt_trial,main,1173
NULL,html-keyboard-response,88,116858,0.0-6.0-3.17,367640,outline,2025/8/8 11:25,2025/8/8 11:28,white_screen,NULL,,NULL,NULL,NULL,NULL,NULL
NULL,html-keyboard-response,89,117056,0.0-6.0-0.18,367640,outline,2025/8/8 11:25,2025/8/8 11:28,start_screen,197,<p>準備ができたらスペースキーを押してください。課題が始まります。</p>, ,NULL,NULL,NULL,NULL
NULL,html-keyboard-response,90,118058,0.0-6.0-1.18,367640,outline,2025/8/8 11:25,2025/8/8 11:28,fixation,NULL,"<p style=""font-size:48px;"">+</p>",NULL,NULL,NULL,NULL,NULL
NULL,html-keyboard-response,91,120747,0.0-6.0-2.18,367640,outline,2025/8/8 11:25,2025/8/8 11:28,rt_trial,2688,"<div id=""fixation"" style=""font-size: 48px;"">+</div>",tab,NULL,rt_trial,main,2394
NULL,html-keyboard-response,92,121247,0.0-6.0-3.18,367640,outline,2025/8/8 11:25,2025/8/8 11:28,white_screen,NULL,,NULL,NULL,NULL,NULL,NULL
NULL,html-keyboard-response,93,121549,0.0-6.0-0.19,367640,outline,2025/8/8 11:25,2025/8/8 11:28,start_screen,302,<p>準備ができたらスペースキーを押してください。課題が始まります。</p>, ,NULL,NULL,NULL,NULL
NULL,html-keyboard-response,94,122557,0.0-6.0-1.19,367640,outline,2025/8/8 11:25,2025/8/8 11:28,fixation,NULL,"<p style=""font-size:48px;"">+</p>",NULL,NULL,NULL,NULL,NULL
NULL,html-keyboard-response,95,124419,0.0-6.0-2.19,367640,outline,2025/8/8 11:25,2025/8/8 11:28,rt_trial,1861,"<div id=""fixation"" style=""font-size: 48px;"">+</div>",tab,NULL,rt_trial,main,1561
NULL,html-keyboard-response,96,124938,0.0-6.0-3.19,367640,outline,2025/8/8 11:25,2025/8/8 11:28,white_screen,NULL,,NULL,NULL,NULL,NULL,NULL
NULL,html-keyboard-response,97,125016,0.0-6.0-0.20,367640,outline,2025/8/8 11:25,2025/8/8 11:28,start_screen,77,<p>準備ができたらスペースキーを押してください。課題が始まります。</p>, ,NULL,NULL,NULL,NULL
NULL,html-keyboard-response,98,126018,0.0-6.0-1.20,367640,outline,2025/8/8 11:25,2025/8/8 11:28,fixation,NULL,"<p style=""font-size:48px;"">+</p>",NULL,NULL,NULL,NULL,NULL
NULL,html-keyboard-response,99,128389,0.0-6.0-2.20,367640,outline,2025/8/8 11:25,2025/8/8 11:28,rt_trial,2371,"<div id=""fixation"" style=""font-size: 48px;"">+</div>",tab,NULL,rt_trial,main,2080
NULL,html-keyboard-response,100,128907,0.0-6.0-3.20,367640,outline,2025/8/8 11:25,2025/8/8 11:28,white_screen,NULL,,NULL,NULL,NULL,NULL,NULL
NULL,html-keyboard-response,101,129197,0.0-6.0-0.21,367640,outline,2025/8/8 11:25,2025/8/8 11:28,start_screen,289,<p>準備ができたらスペースキーを押してください。課題が始まります。</p>, ,NULL,NULL,NULL,NULL
NULL,html-keyboard-response,102,130217,0.0-6.0-1.21,367640,outline,2025/8/8 11:25,2025/8/8 11:28,fixation,NULL,"<p style=""font-size:48px;"">+</p>",NULL,NULL,NULL,NULL,NULL
NULL,html-keyboard-response,103,133129,0.0-6.0-2.21,367640,outline,2025/8/8 11:25,2025/8/8 11:28,rt_trial,2911,"<div id=""fixation"" style=""font-size: 48px;"">+</div>",tab,NULL,rt_trial,main,2440
NULL,html-keyboard-response,104,133642,0.0-6.0-3.21,367640,outline,2025/8/8 11:25,2025/8/8 11:28,white_screen,NULL,,NULL,NULL,NULL,NULL,NULL
NULL,html-keyboard-response,105,133654,0.0-6.0-0.22,367640,outline,2025/8/8 11:25,2025/8/8 11:28,start_screen,11,<p>準備ができたらスペースキーを押してください。課題が始まります。</p>, ,NULL,NULL,NULL,NULL
NULL,html-keyboard-response,106,134657,0.0-6.0-1.22,367640,outline,2025/8/8 11:25,2025/8/8 11:28,fixation,NULL,"<p style=""font-size:48px;"">+</p>",NULL,NULL,NULL,NULL,NULL
NULL,html-keyboard-response,107,137983,0.0-6.0-2.22,367640,outline,2025/8/8 11:25,2025/8/8 11:28,rt_trial,3326,"<div id=""fixation"" style=""font-size: 48px;"">+</div>",tab,NULL,rt_trial,main,2997
NULL,html-keyboard-response,108,138497,0.0-6.0-3.22,367640,outline,2025/8/8 11:25,2025/8/8 11:28,white_screen,NULL,,NULL,NULL,NULL,NULL,NULL
NULL,html-keyboard-response,109,138683,0.0-6.0-0.23,367640,outline,2025/8/8 11:25,2025/8/8 11:28,start_screen,185,<p>準備ができたらスペースキーを押してください。課題が始まります。</p>, ,NULL,NULL,NULL,NULL
NULL,html-keyboard-response,110,139697,0.0-6.0-1.23,367640,outline,2025/8/8 11:25,2025/8/8 11:28,fixation,NULL,"<p style=""font-size:48px;"">+</p>",NULL,NULL,NULL,NULL,NULL
NULL,html-keyboard-response,111,141080,0.0-6.0-2.23,367640,outline,2025/8/8 11:25,2025/8/8 11:28,rt_trial,1383,"<div id=""fixation"" style=""font-size: 48px;"">+</div>",tab,NULL,rt_trial,main,1003
NULL,html-keyboard-response,112,141587,0.0-6.0-3.23,367640,outline,2025/8/8 11:25,2025/8/8 11:28,white_screen,NULL,,NULL,NULL,NULL,NULL,NULL
NULL,html-keyboard-response,113,141704,0.0-6.0-0.24,367640,outline,2025/8/8 11:25,2025/8/8 11:28,start_screen,115,<p>準備ができたらスペースキーを押してください。課題が始まります。</p>, ,NULL,NULL,NULL,NULL
NULL,html-keyboard-response,114,142707,0.0-6.0-1.24,367640,outline,2025/8/8 11:25,2025/8/8 11:28,fixation,NULL,"<p style=""font-size:48px;"">+</p>",NULL,NULL,NULL,NULL,NULL
NULL,html-keyboard-response,115,144917,0.0-6.0-2.24,367640,outline,2025/8/8 11:25,2025/8/8 11:28,rt_trial,2209,"<div id=""fixation"" style=""font-size: 48px;"">+</div>",tab,NULL,rt_trial,main,1919
NULL,html-keyboard-response,116,145432,0.0-6.0-3.24,367640,outline,2025/8/8 11:25,2025/8/8 11:28,white_screen,NULL,,NULL,NULL,NULL,NULL,NULL
NULL,html-keyboard-response,117,145641,0.0-6.0-0.25,367640,outline,2025/8/8 11:25,2025/8/8 11:28,start_screen,208,<p>準備ができたらスペースキーを押してください。課題が始まります。</p>, ,NULL,NULL,NULL,NULL
NULL,html-keyboard-response,118,146647,0.0-6.0-1.25,367640,outline,2025/8/8 11:25,2025/8/8 11:28,fixation,NULL,"<p style=""font-size:48px;"">+</p>",NULL,NULL,NULL,NULL,NULL
NULL,html-keyboard-response,119,149280,0.0-6.0-2.25,367640,outline,2025/8/8 11:25,2025/8/8 11:28,rt_trial,2633,"<div id=""fixation"" style=""font-size: 48px;"">+</div>",tab,NULL,rt_trial,main,2343
NULL,html-keyboard-response,120,149797,0.0-6.0-3.25,367640,outline,2025/8/8 11:25,2025/8/8 11:28,white_screen,NULL,,NULL,NULL,NULL,NULL,NULL
NULL,html-keyboard-response,121,149991,0.0-6.0-0.26,367640,outline,2025/8/8 11:25,2025/8/8 11:28,start_screen,193,<p>準備ができたらスペースキーを押してください。課題が始まります。</p>, ,NULL,NULL,NULL,NULL
NULL,html-keyboard-response,122,151003,0.0-6.0-1.26,367640,outline,2025/8/8 11:25,2025/8/8 11:28,fixation,NULL,"<p style=""font-size:48px;"">+</p>",NULL,NULL,NULL,NULL,NULL
NULL,html-keyboard-response,123,153967,0.0-6.0-2.26,367640,outline,2025/8/8 11:25,2025/8/8 11:28,rt_trial,2964,"<div id=""fixation"" style=""font-size: 48px;"">+</div>",tab,NULL,rt_trial,main,2670
NULL,html-keyboard-response,124,154477,0.0-6.0-3.26,367640,outline,2025/8/8 11:25,2025/8/8 11:28,white_screen,NULL,,NULL,NULL,NULL,NULL,NULL
NULL,html-keyboard-response,125,154580,0.0-6.0-0.27,367640,outline,2025/8/8 11:25,2025/8/8 11:28,start_screen,101,<p>準備ができたらスペースキーを押してください。課題が始まります。</p>, ,NULL,NULL,NULL,NULL
NULL,html-keyboard-response,126,155587,0.0-6.0-1.27,367640,outline,2025/8/8 11:25,2025/8/8 11:28,fixation,NULL,"<p style=""font-size:48px;"">+</p>",NULL,NULL,NULL,NULL,NULL
NULL,html-keyboard-response,127,157914,0.0-6.0-2.27,367640,outline,2025/8/8 11:25,2025/8/8 11:28,rt_trial,2327,"<div id=""fixation"" style=""font-size: 48px;"">+</div>",tab,NULL,rt_trial,main,2025
NULL,html-keyboard-response,128,158417,0.0-6.0-3.27,367640,outline,2025/8/8 11:25,2025/8/8 11:28,white_screen,NULL,,NULL,NULL,NULL,NULL,NULL
NULL,html-keyboard-response,129,158537,0.0-6.0-0.28,367640,outline,2025/8/8 11:25,2025/8/8 11:28,start_screen,119,<p>準備ができたらスペースキーを押してください。課題が始まります。</p>, ,NULL,NULL,NULL,NULL
NULL,html-keyboard-response,130,159557,0.0-6.0-1.28,367640,outline,2025/8/8 11:25,2025/8/8 11:28,fixation,NULL,"<p style=""font-size:48px;"">+</p>",NULL,NULL,NULL,NULL,NULL
NULL,html-keyboard-response,131,162379,0.0-6.0-2.28,367640,outline,2025/8/8 11:25,2025/8/8 11:28,rt_trial,2821,"<div id=""fixation"" style=""font-size: 48px;"">+</div>",tab,NULL,rt_trial,main,2535
NULL,html-keyboard-response,132,162892,0.0-6.0-3.28,367640,outline,2025/8/8 11:25,2025/8/8 11:28,white_screen,NULL,,NULL,NULL,NULL,NULL,NULL
NULL,html-keyboard-response,133,163151,0.0-6.0-0.29,367640,outline,2025/8/8 11:25,2025/8/8 11:28,start_screen,258,<p>準備ができたらスペースキーを押してください。課題が始まります。</p>, ,NULL,NULL,NULL,NULL
NULL,html-keyboard-response,134,164158,0.0-6.0-1.29,367640,outline,2025/8/8 11:25,2025/8/8 11:28,fixation,NULL,"<p style=""font-size:48px;"">+</p>",NULL,NULL,NULL,NULL,NULL
NULL,html-keyboard-response,135,166436,0.0-6.0-2.29,367640,outline,2025/8/8 11:25,2025/8/8 11:28,rt_trial,2277,"<div id=""fixation"" style=""font-size: 48px;"">+</div>",tab,NULL,rt_trial,main,2002
NULL,html-keyboard-response,136,166947,0.0-6.0-3.29,367640,outline,2025/8/8 11:25,2025/8/8 11:28,white_screen,NULL,,NULL,NULL,NULL,NULL,NULL
NULL,html-keyboard-response,137,167060,0.0-7.0,367640,outline,2025/8/8 11:25,2025/8/8 11:28,task_description,112,"<p style=""text-align: left"">おつかれさまでした。</p>
        <p><br><br></p>
        <p style=""text-align: left"">次に、本課題の際に行ってもらう課題の説明に移ります。</p>
        <p style=""text-align: left""><strong>準備ができたらスペースキーを押してください。</strong></p>", ,NULL,NULL,NULL,NULL
1,preload,0,46,0.0-0.0,5138531,structured,2025/8/8 11:24,2025/8/8 11:28,NULL,NULL,NULL,NULL,NULL,NULL,NULL,NULL
1,fullscreen,1,7867,0.0-1.0,5138531,structured,2025/8/8 11:24,2025/8/8 11:28,FullScreen,NULL,NULL,NULL,NULL,NULL,NULL,NULL
NULL,html-button-response,2,23283,0.0-2.0,5138531,structured,2025/8/8 11:24,2025/8/8 11:28,check_volume,15415,"
        <p style=""text-align: left"">はじめに、この後の実験で使う音声の音量を調整してください。</p>
        <p style=""text-align: left"">以下に提示されている「音を流す」ボタンを押すと音（短いビープ音）が流れますので、</p>
        <p style=""text-align: left"">適切な音量となるようにPCやイヤホンの設定をお願いします。</p>
        <p><button id=""play-sound-button"">音を流す</button></p>
        <p style=""text-align: left""><b>この音は以降も使うので、ここで設定した内容は、この研究のすべての実験が終わるまで変更しないでください。</b></p>
        <p><br></p>
    ",0,NULL,NULL,NULL,NULL
NULL,instructions,3,73355,0.0-3.0,5138531,structured,2025/8/8 11:24,2025/8/8 11:28,main_task_inst_tl,50071,NULL,NULL,Array,NULL,NULL,NULL
NULL,html-keyboard-response,4,75188,0.0-4.0-0.0,5138531,structured,2025/8/8 11:24,2025/8/8 11:28,start_screen,1832,<p>準備ができたらスペースキーを押してください。課題が始まります。</p>, ,NULL,NULL,NULL,NULL
NULL,html-keyboard-response,5,76197,0.0-4.0-1.0,5138531,structured,2025/8/8 11:24,2025/8/8 11:28,fixation,NULL,"<p style=""font-size:48px;"">+</p>",NULL,NULL,NULL,NULL,NULL
NULL,html-keyboard-response,6,78659,0.0-4.0-2.0,5138531,structured,2025/8/8 11:24,2025/8/8 11:28,rt_trial,2461,"<div id=""fixation"" style=""font-size: 48px;"">+</div>",tab,NULL,rt_trial,practice,1416
NULL,html-keyboard-response,7,79166,0.0-4.0-3.0,5138531,structured,2025/8/8 11:24,2025/8/8 11:28,white_screen,NULL,,NULL,NULL,NULL,NULL,NULL
NULL,html-keyboard-response,8,80299,0.0-4.0-0.1,5138531,structured,2025/8/8 11:24,2025/8/8 11:28,start_screen,1133,<p>準備ができたらスペースキーを押してください。課題が始まります。</p>, ,NULL,NULL,NULL,NULL
NULL,html-keyboard-response,9,81303,0.0-4.0-1.1,5138531,structured,2025/8/8 11:24,2025/8/8 11:28,fixation,NULL,"<p style=""font-size:48px;"">+</p>",NULL,NULL,NULL,NULL,NULL
NULL,html-keyboard-response,10,84323,0.0-4.0-2.1,5138531,structured,2025/8/8 11:24,2025/8/8 11:28,rt_trial,3020,"<div id=""fixation"" style=""font-size: 48px;"">+</div>",tab,NULL,rt_trial,practice,2667
NULL,html-keyboard-response,11,84832,0.0-4.0-3.1,5138531,structured,2025/8/8 11:24,2025/8/8 11:28,white_screen,NULL,,NULL,NULL,NULL,NULL,NULL
NULL,html-keyboard-response,12,85619,0.0-4.0-0.2,5138531,structured,2025/8/8 11:24,2025/8/8 11:28,start_screen,786,<p>準備ができたらスペースキーを押してください。課題が始まります。</p>, ,NULL,NULL,NULL,NULL
NULL,html-keyboard-response,13,86623,0.0-4.0-1.2,5138531,structured,2025/8/8 11:24,2025/8/8 11:28,fixation,NULL,"<p style=""font-size:48px;"">+</p>",NULL,NULL,NULL,NULL,NULL
NULL,html-keyboard-response,14,88540,0.0-4.0-2.2,5138531,structured,2025/8/8 11:24,2025/8/8 11:28,rt_trial,1916,"<div id=""fixation"" style=""font-size: 48px;"">+</div>",tab,NULL,rt_trial,practice,1523
NULL,html-keyboard-response,15,89042,0.0-4.0-3.2,5138531,structured,2025/8/8 11:24,2025/8/8 11:28,white_screen,NULL,,NULL,NULL,NULL,NULL,NULL
NULL,html-keyboard-response,16,92771,0.0-5.0,5138531,structured,2025/8/8 11:24,2025/8/8 11:28,NULL,3728,"<p style=""text-align: left"">練習は以上です。</p>
               <p style=""text-align: left"">この後、本番課題に入ります。</p>
               <p style=""text-align: left"">ビープ音の音量が気になる方は、パソコンの音量設定をここで変更ください。</p>
               <p style=""text-align: left""><strong>本番も、ビープ音が聞こえ次第すぐにTabキーを押してください。</strong></p>
               <p><br><br></p>
               <p><strong>準備ができたらスペースキーを押してください。</strong></p>", ,NULL,NULL,NULL,NULL
NULL,html-keyboard-response,17,94051,0.0-6.0-0.0,5138531,structured,2025/8/8 11:24,2025/8/8 11:28,start_screen,1280,<p>準備ができたらスペースキーを押してください。課題が始まります。</p>, ,NULL,NULL,NULL,NULL
NULL,html-keyboard-response,18,95054,0.0-6.0-1.0,5138531,structured,2025/8/8 11:24,2025/8/8 11:28,fixation,NULL,"<p style=""font-size:48px;"">+</p>",NULL,NULL,NULL,NULL,NULL
NULL,html-keyboard-response,19,97499,0.0-6.0-2.0,5138531,structured,2025/8/8 11:24,2025/8/8 11:28,rt_trial,2445,"<div id=""fixation"" style=""font-size: 48px;"">+</div>",tab,NULL,rt_trial,main,2082
NULL,html-keyboard-response,20,98008,0.0-6.0-3.0,5138531,structured,2025/8/8 11:24,2025/8/8 11:28,white_screen,NULL,,NULL,NULL,NULL,NULL,NULL
NULL,html-keyboard-response,21,98547,0.0-6.0-0.1,5138531,structured,2025/8/8 11:24,2025/8/8 11:28,start_screen,538,<p>準備ができたらスペースキーを押してください。課題が始まります。</p>, ,NULL,NULL,NULL,NULL
NULL,html-keyboard-response,22,99556,0.0-6.0-1.1,5138531,structured,2025/8/8 11:24,2025/8/8 11:28,fixation,NULL,"<p style=""font-size:48px;"">+</p>",NULL,NULL,NULL,NULL,NULL
NULL,html-keyboard-response,23,102587,0.0-6.0-2.1,5138531,structured,2025/8/8 11:24,2025/8/8 11:28,rt_trial,3030,"<div id=""fixation"" style=""font-size: 48px;"">+</div>",tab,NULL,rt_trial,main,2687
NULL,html-keyboard-response,24,103098,0.0-6.0-3.1,5138531,structured,2025/8/8 11:24,2025/8/8 11:28,white_screen,NULL,,NULL,NULL,NULL,NULL,NULL
NULL,html-keyboard-response,25,103395,0.0-6.0-0.2,5138531,structured,2025/8/8 11:24,2025/8/8 11:28,start_screen,296,<p>準備ができたらスペースキーを押してください。課題が始まります。</p>, ,NULL,NULL,NULL,NULL
NULL,html-keyboard-response,26,104397,0.0-6.0-1.2,5138531,structured,2025/8/8 11:24,2025/8/8 11:28,fixation,NULL,"<p style=""font-size:48px;"">+</p>",NULL,NULL,NULL,NULL,NULL
NULL,html-keyboard-response,27,106916,0.0-6.0-2.2,5138531,structured,2025/8/8 11:24,2025/8/8 11:28,rt_trial,2518,"<div id=""fixation"" style=""font-size: 48px;"">+</div>",tab,NULL,rt_trial,main,2145
NULL,html-keyboard-response,28,107420,0.0-6.0-3.2,5138531,structured,2025/8/8 11:24,2025/8/8 11:28,white_screen,NULL,,NULL,NULL,NULL,NULL,NULL
NULL,html-keyboard-response,29,107754,0.0-6.0-0.3,5138531,structured,2025/8/8 11:24,2025/8/8 11:28,start_screen,334,<p>準備ができたらスペースキーを押してください。課題が始まります。</p>, ,NULL,NULL,NULL,NULL
NULL,html-keyboard-response,30,108760,0.0-6.0-1.3,5138531,structured,2025/8/8 11:24,2025/8/8 11:28,fixation,NULL,"<p style=""font-size:48px;"">+</p>",NULL,NULL,NULL,NULL,NULL
NULL,html-keyboard-response,31,111731,0.0-6.0-2.3,5138531,structured,2025/8/8 11:24,2025/8/8 11:28,rt_trial,2971,"<div id=""fixation"" style=""font-size: 48px;"">+</div>",tab,NULL,rt_trial,main,2649
NULL,html-keyboard-response,32,112239,0.0-6.0-3.3,5138531,structured,2025/8/8 11:24,2025/8/8 11:28,white_screen,NULL,,NULL,NULL,NULL,NULL,NULL
NULL,html-keyboard-response,33,112555,0.0-6.0-0.4,5138531,structured,2025/8/8 11:24,2025/8/8 11:28,start_screen,315,<p>準備ができたらスペースキーを押してください。課題が始まります。</p>, ,NULL,NULL,NULL,NULL
NULL,html-keyboard-response,34,113566,0.0-6.0-1.4,5138531,structured,2025/8/8 11:24,2025/8/8 11:28,fixation,NULL,"<p style=""font-size:48px;"">+</p>",NULL,NULL,NULL,NULL,NULL
NULL,html-keyboard-response,35,116595,0.0-6.0-2.4,5138531,structured,2025/8/8 11:24,2025/8/8 11:28,rt_trial,3029,"<div id=""fixation"" style=""font-size: 48px;"">+</div>",tab,NULL,rt_trial,main,2671
NULL,html-keyboard-response,36,117108,0.0-6.0-3.4,5138531,structured,2025/8/8 11:24,2025/8/8 11:28,white_screen,NULL,,NULL,NULL,NULL,NULL,NULL
NULL,html-keyboard-response,37,117778,0.0-6.0-0.5,5138531,structured,2025/8/8 11:24,2025/8/8 11:28,start_screen,670,<p>準備ができたらスペースキーを押してください。課題が始まります。</p>, ,NULL,NULL,NULL,NULL
NULL,html-keyboard-response,38,118785,0.0-6.0-1.5,5138531,structured,2025/8/8 11:24,2025/8/8 11:28,fixation,NULL,"<p style=""font-size:48px;"">+</p>",NULL,NULL,NULL,NULL,NULL
NULL,html-keyboard-response,39,121851,0.0-6.0-2.5,5138531,structured,2025/8/8 11:24,2025/8/8 11:28,rt_trial,3065,"<div id=""fixation"" style=""font-size: 48px;"">+</div>",tab,NULL,rt_trial,main,2724
NULL,html-keyboard-response,40,122353,0.0-6.0-3.5,5138531,structured,2025/8/8 11:24,2025/8/8 11:28,white_screen,NULL,,NULL,NULL,NULL,NULL,NULL
NULL,html-keyboard-response,41,122651,0.0-6.0-0.6,5138531,structured,2025/8/8 11:24,2025/8/8 11:28,start_screen,297,<p>準備ができたらスペースキーを押してください。課題が始まります。</p>, ,NULL,NULL,NULL,NULL
NULL,html-keyboard-response,42,123659,0.0-6.0-1.6,5138531,structured,2025/8/8 11:24,2025/8/8 11:28,fixation,NULL,"<p style=""font-size:48px;"">+</p>",NULL,NULL,NULL,NULL,NULL
NULL,html-keyboard-response,43,126675,0.0-6.0-2.6,5138531,structured,2025/8/8 11:24,2025/8/8 11:28,rt_trial,3015,"<div id=""fixation"" style=""font-size: 48px;"">+</div>",tab,NULL,rt_trial,main,2686
NULL,html-keyboard-response,44,127185,0.0-6.0-3.6,5138531,structured,2025/8/8 11:24,2025/8/8 11:28,white_screen,NULL,,NULL,NULL,NULL,NULL,NULL
NULL,html-keyboard-response,45,127515,0.0-6.0-0.7,5138531,structured,2025/8/8 11:24,2025/8/8 11:28,start_screen,330,<p>準備ができたらスペースキーを押してください。課題が始まります。</p>, ,NULL,NULL,NULL,NULL
NULL,html-keyboard-response,46,128529,0.0-6.0-1.7,5138531,structured,2025/8/8 11:24,2025/8/8 11:28,fixation,NULL,"<p style=""font-size:48px;"">+</p>",NULL,NULL,NULL,NULL,NULL
NULL,html-keyboard-response,47,131115,0.0-6.0-2.7,5138531,structured,2025/8/8 11:24,2025/8/8 11:28,rt_trial,2585,"<div id=""fixation"" style=""font-size: 48px;"">+</div>",tab,NULL,rt_trial,main,2174
NULL,html-keyboard-response,48,131617,0.0-6.0-3.7,5138531,structured,2025/8/8 11:24,2025/8/8 11:28,white_screen,NULL,,NULL,NULL,NULL,NULL,NULL
NULL,html-keyboard-response,49,131979,0.0-6.0-0.8,5138531,structured,2025/8/8 11:24,2025/8/8 11:28,start_screen,362,<p>準備ができたらスペースキーを押してください。課題が始まります。</p>, ,NULL,NULL,NULL,NULL
NULL,html-keyboard-response,50,132993,0.0-6.0-1.8,5138531,structured,2025/8/8 11:24,2025/8/8 11:28,fixation,NULL,"<p style=""font-size:48px;"">+</p>",NULL,NULL,NULL,NULL,NULL
NULL,html-keyboard-response,51,135483,0.0-6.0-2.8,5138531,structured,2025/8/8 11:24,2025/8/8 11:28,rt_trial,2490,"<div id=""fixation"" style=""font-size: 48px;"">+</div>",tab,NULL,rt_trial,main,2159
NULL,html-keyboard-response,52,135995,0.0-6.0-3.8,5138531,structured,2025/8/8 11:24,2025/8/8 11:28,white_screen,NULL,,NULL,NULL,NULL,NULL,NULL
NULL,html-keyboard-response,53,136339,0.0-6.0-0.9,5138531,structured,2025/8/8 11:24,2025/8/8 11:28,start_screen,344,<p>準備ができたらスペースキーを押してください。課題が始まります。</p>, ,NULL,NULL,NULL,NULL
NULL,html-keyboard-response,54,137353,0.0-6.0-1.9,5138531,structured,2025/8/8 11:24,2025/8/8 11:28,fixation,NULL,"<p style=""font-size:48px;"">+</p>",NULL,NULL,NULL,NULL,NULL
NULL,html-keyboard-response,55,140619,0.0-6.0-2.9,5138531,structured,2025/8/8 11:24,2025/8/8 11:28,rt_trial,3265,"<div id=""fixation"" style=""font-size: 48px;"">+</div>",tab,NULL,rt_trial,main,2928
NULL,html-keyboard-response,56,141131,0.0-6.0-3.9,5138531,structured,2025/8/8 11:24,2025/8/8 11:28,white_screen,NULL,,NULL,NULL,NULL,NULL,NULL
NULL,html-keyboard-response,57,141419,0.0-6.0-0.10,5138531,structured,2025/8/8 11:24,2025/8/8 11:28,start_screen,288,<p>準備ができたらスペースキーを押してください。課題が始まります。</p>, ,NULL,NULL,NULL,NULL
NULL,html-keyboard-response,58,142430,0.0-6.0-1.10,5138531,structured,2025/8/8 11:24,2025/8/8 11:28,fixation,NULL,"<p style=""font-size:48px;"">+</p>",NULL,NULL,NULL,NULL,NULL
NULL,html-keyboard-response,59,145627,0.0-6.0-2.10,5138531,structured,2025/8/8 11:24,2025/8/8 11:28,rt_trial,3196,"<div id=""fixation"" style=""font-size: 48px;"">+</div>",tab,NULL,rt_trial,main,2849
NULL,html-keyboard-response,60,146139,0.0-6.0-3.10,5138531,structured,2025/8/8 11:24,2025/8/8 11:28,white_screen,NULL,,NULL,NULL,NULL,NULL,NULL
NULL,html-keyboard-response,61,146419,0.0-6.0-0.11,5138531,structured,2025/8/8 11:24,2025/8/8 11:28,start_screen,280,<p>準備ができたらスペースキーを押してください。課題が始まります。</p>, ,NULL,NULL,NULL,NULL
NULL,html-keyboard-response,62,147432,0.0-6.0-1.11,5138531,structured,2025/8/8 11:24,2025/8/8 11:28,fixation,NULL,"<p style=""font-size:48px;"">+</p>",NULL,NULL,NULL,NULL,NULL
NULL,html-keyboard-response,63,150747,0.0-6.0-2.11,5138531,structured,2025/8/8 11:24,2025/8/8 11:28,rt_trial,3315,"<div id=""fixation"" style=""font-size: 48px;"">+</div>",tab,NULL,rt_trial,main,2983
NULL,html-keyboard-response,64,151250,0.0-6.0-3.11,5138531,structured,2025/8/8 11:24,2025/8/8 11:28,white_screen,NULL,,NULL,NULL,NULL,NULL,NULL
NULL,html-keyboard-response,65,151546,0.0-6.0-0.12,5138531,structured,2025/8/8 11:24,2025/8/8 11:28,start_screen,296,<p>準備ができたらスペースキーを押してください。課題が始まります。</p>, ,NULL,NULL,NULL,NULL
NULL,html-keyboard-response,66,152554,0.0-6.0-1.12,5138531,structured,2025/8/8 11:24,2025/8/8 11:28,fixation,NULL,"<p style=""font-size:48px;"">+</p>",NULL,NULL,NULL,NULL,NULL
NULL,html-keyboard-response,67,154170,0.0-6.0-2.12,5138531,structured,2025/8/8 11:24,2025/8/8 11:28,rt_trial,1616,"<div id=""fixation"" style=""font-size: 48px;"">+</div>",tab,NULL,rt_trial,main,1169
NULL,html-keyboard-response,68,154673,0.0-6.0-3.12,5138531,structured,2025/8/8 11:24,2025/8/8 11:28,white_screen,NULL,,NULL,NULL,NULL,NULL,NULL
NULL,html-keyboard-response,69,155028,0.0-6.0-0.13,5138531,structured,2025/8/8 11:24,2025/8/8 11:28,start_screen,354,<p>準備ができたらスペースキーを押してください。課題が始まります。</p>, ,NULL,NULL,NULL,NULL
NULL,html-keyboard-response,70,156031,0.0-6.0-1.13,5138531,structured,2025/8/8 11:24,2025/8/8 11:28,fixation,NULL,"<p style=""font-size:48px;"">+</p>",NULL,NULL,NULL,NULL,NULL
NULL,html-keyboard-response,71,157555,0.0-6.0-2.13,5138531,structured,2025/8/8 11:24,2025/8/8 11:28,rt_trial,1524,"<div id=""fixation"" style=""font-size: 48px;"">+</div>",tab,NULL,rt_trial,main,1177
NULL,html-keyboard-response,72,158067,0.0-6.0-3.13,5138531,structured,2025/8/8 11:24,2025/8/8 11:28,white_screen,NULL,,NULL,NULL,NULL,NULL,NULL
NULL,html-keyboard-response,73,158394,0.0-6.0-0.14,5138531,structured,2025/8/8 11:24,2025/8/8 11:28,start_screen,327,<p>準備ができたらスペースキーを押してください。課題が始まります。</p>, ,NULL,NULL,NULL,NULL
NULL,html-keyboard-response,74,159396,0.0-6.0-1.14,5138531,structured,2025/8/8 11:24,2025/8/8 11:28,fixation,NULL,"<p style=""font-size:48px;"">+</p>",NULL,NULL,NULL,NULL,NULL
NULL,html-keyboard-response,75,160770,0.0-6.0-2.14,5138531,structured,2025/8/8 11:24,2025/8/8 11:28,rt_trial,1373,"<div id=""fixation"" style=""font-size: 48px;"">+</div>",tab,NULL,rt_trial,main,1065
NULL,html-keyboard-response,76,161286,0.0-6.0-3.14,5138531,structured,2025/8/8 11:24,2025/8/8 11:28,white_screen,NULL,,NULL,NULL,NULL,NULL,NULL
NULL,html-keyboard-response,77,161778,0.0-6.0-0.15,5138531,structured,2025/8/8 11:24,2025/8/8 11:28,start_screen,492,<p>準備ができたらスペースキーを押してください。課題が始まります。</p>, ,NULL,NULL,NULL,NULL
NULL,html-keyboard-response,78,162779,0.0-6.0-1.15,5138531,structured,2025/8/8 11:24,2025/8/8 11:28,fixation,NULL,"<p style=""font-size:48px;"">+</p>",NULL,NULL,NULL,NULL,NULL
NULL,html-keyboard-response,79,165059,0.0-6.0-2.15,5138531,structured,2025/8/8 11:24,2025/8/8 11:28,rt_trial,2279,"<div id=""fixation"" style=""font-size: 48px;"">+</div>",tab,NULL,rt_trial,main,1940
NULL,html-keyboard-response,80,165563,0.0-6.0-3.15,5138531,structured,2025/8/8 11:24,2025/8/8 11:28,white_screen,NULL,,NULL,NULL,NULL,NULL,NULL
NULL,html-keyboard-response,81,165842,0.0-6.0-0.16,5138531,structured,2025/8/8 11:24,2025/8/8 11:28,start_screen,279,<p>準備ができたらスペースキーを押してください。課題が始まります。</p>, ,NULL,NULL,NULL,NULL
NULL,html-keyboard-response,82,166849,0.0-6.0-1.16,5138531,structured,2025/8/8 11:24,2025/8/8 11:28,fixation,NULL,"<p style=""font-size:48px;"">+</p>",NULL,NULL,NULL,NULL,NULL
NULL,html-keyboard-response,83,168627,0.0-6.0-2.16,5138531,structured,2025/8/8 11:24,2025/8/8 11:28,rt_trial,1777,"<div id=""fixation"" style=""font-size: 48px;"">+</div>",tab,NULL,rt_trial,main,1463
NULL,html-keyboard-response,84,169141,0.0-6.0-3.16,5138531,structured,2025/8/8 11:24,2025/8/8 11:28,white_screen,NULL,,NULL,NULL,NULL,NULL,NULL
NULL,html-keyboard-response,85,169523,0.0-6.0-0.17,5138531,structured,2025/8/8 11:24,2025/8/8 11:28,start_screen,382,<p>準備ができたらスペースキーを押してください。課題が始まります。</p>, ,NULL,NULL,NULL,NULL
NULL,html-keyboard-response,86,170524,0.0-6.0-1.17,5138531,structured,2025/8/8 11:24,2025/8/8 11:28,fixation,NULL,"<p style=""font-size:48px;"">+</p>",NULL,NULL,NULL,NULL,NULL
NULL,html-keyboard-response,87,172123,0.0-6.0-2.17,5138531,structured,2025/8/8 11:24,2025/8/8 11:28,rt_trial,1598,"<div id=""fixation"" style=""font-size: 48px;"">+</div>",tab,NULL,rt_trial,main,1264
NULL,html-keyboard-response,88,172638,0.0-6.0-3.17,5138531,structured,2025/8/8 11:24,2025/8/8 11:28,white_screen,NULL,,NULL,NULL,NULL,NULL,NULL
NULL,html-keyboard-response,89,173122,0.0-6.0-0.18,5138531,structured,2025/8/8 11:24,2025/8/8 11:28,start_screen,484,<p>準備ができたらスペースキーを押してください。課題が始まります。</p>, ,NULL,NULL,NULL,NULL
NULL,html-keyboard-response,90,174127,0.0-6.0-1.18,5138531,structured,2025/8/8 11:24,2025/8/8 11:28,fixation,NULL,"<p style=""font-size:48px;"">+</p>",NULL,NULL,NULL,NULL,NULL
NULL,html-keyboard-response,91,177259,0.0-6.0-2.18,5138531,structured,2025/8/8 11:24,2025/8/8 11:28,rt_trial,3132,"<div id=""fixation"" style=""font-size: 48px;"">+</div>",tab,NULL,rt_trial,main,2838
NULL,html-keyboard-response,92,177763,0.0-6.0-3.18,5138531,structured,2025/8/8 11:24,2025/8/8 11:28,white_screen,NULL,,NULL,NULL,NULL,NULL,NULL
NULL,html-keyboard-response,93,178122,0.0-6.0-0.19,5138531,structured,2025/8/8 11:24,2025/8/8 11:28,start_screen,360,<p>準備ができたらスペースキーを押してください。課題が始まります。</p>, ,NULL,NULL,NULL,NULL
NULL,html-keyboard-response,94,179136,0.0-6.0-1.19,5138531,structured,2025/8/8 11:24,2025/8/8 11:28,fixation,NULL,"<p style=""font-size:48px;"">+</p>",NULL,NULL,NULL,NULL,NULL
NULL,html-keyboard-response,95,182250,0.0-6.0-2.19,5138531,structured,2025/8/8 11:24,2025/8/8 11:28,rt_trial,3114,"<div id=""fixation"" style=""font-size: 48px;"">+</div>",tab,NULL,rt_trial,main,2748
NULL,html-keyboard-response,96,182752,0.0-6.0-3.19,5138531,structured,2025/8/8 11:24,2025/8/8 11:28,white_screen,NULL,,NULL,NULL,NULL,NULL,NULL
NULL,html-keyboard-response,97,183139,0.0-6.0-0.20,5138531,structured,2025/8/8 11:24,2025/8/8 11:28,start_screen,386,<p>準備ができたらスペースキーを押してください。課題が始まります。</p>, ,NULL,NULL,NULL,NULL
NULL,html-keyboard-response,98,184153,0.0-6.0-1.20,5138531,structured,2025/8/8 11:24,2025/8/8 11:28,fixation,NULL,"<p style=""font-size:48px;"">+</p>",NULL,NULL,NULL,NULL,NULL
NULL,html-keyboard-response,99,186219,0.0-6.0-2.20,5138531,structured,2025/8/8 11:24,2025/8/8 11:28,rt_trial,2065,"<div id=""fixation"" style=""font-size: 48px;"">+</div>",tab,NULL,rt_trial,main,1639
NULL,html-keyboard-response,100,186726,0.0-6.0-3.20,5138531,structured,2025/8/8 11:24,2025/8/8 11:28,white_screen,NULL,,NULL,NULL,NULL,NULL,NULL
NULL,html-keyboard-response,101,187122,0.0-6.0-0.21,5138531,structured,2025/8/8 11:24,2025/8/8 11:28,start_screen,396,<p>準備ができたらスペースキーを押してください。課題が始まります。</p>, ,NULL,NULL,NULL,NULL
NULL,html-keyboard-response,102,188139,0.0-6.0-1.21,5138531,structured,2025/8/8 11:24,2025/8/8 11:28,fixation,NULL,"<p style=""font-size:48px;"">+</p>",NULL,NULL,NULL,NULL,NULL
NULL,html-keyboard-response,103,190043,0.0-6.0-2.21,5138531,structured,2025/8/8 11:24,2025/8/8 11:28,rt_trial,1904,"<div id=""fixation"" style=""font-size: 48px;"">+</div>",tab,NULL,rt_trial,main,1307
NULL,html-keyboard-response,104,190553,0.0-6.0-3.21,5138531,structured,2025/8/8 11:24,2025/8/8 11:28,white_screen,NULL,,NULL,NULL,NULL,NULL,NULL
NULL,html-keyboard-response,105,191211,0.0-6.0-0.22,5138531,structured,2025/8/8 11:24,2025/8/8 11:28,start_screen,657,<p>準備ができたらスペースキーを押してください。課題が始まります。</p>, ,NULL,NULL,NULL,NULL
NULL,html-keyboard-response,106,192223,0.0-6.0-1.22,5138531,structured,2025/8/8 11:24,2025/8/8 11:28,fixation,NULL,"<p style=""font-size:48px;"">+</p>",NULL,NULL,NULL,NULL,NULL
NULL,html-keyboard-response,107,193802,0.0-6.0-2.22,5138531,structured,2025/8/8 11:24,2025/8/8 11:28,rt_trial,1579,"<div id=""fixation"" style=""font-size: 48px;"">+</div>",tab,NULL,rt_trial,main,1257
NULL,html-keyboard-response,108,194313,0.0-6.0-3.22,5138531,structured,2025/8/8 11:24,2025/8/8 11:28,white_screen,NULL,,NULL,NULL,NULL,NULL,NULL
NULL,html-keyboard-response,109,194619,0.0-6.0-0.23,5138531,structured,2025/8/8 11:24,2025/8/8 11:28,start_screen,306,<p>準備ができたらスペースキーを押してください。課題が始まります。</p>, ,NULL,NULL,NULL,NULL
NULL,html-keyboard-response,110,195628,0.0-6.0-1.23,5138531,structured,2025/8/8 11:24,2025/8/8 11:28,fixation,NULL,"<p style=""font-size:48px;"">+</p>",NULL,NULL,NULL,NULL,NULL
NULL,html-keyboard-response,111,197986,0.0-6.0-2.23,5138531,structured,2025/8/8 11:24,2025/8/8 11:28,rt_trial,2358,"<div id=""fixation"" style=""font-size: 48px;"">+</div>",tab,NULL,rt_trial,main,2003
NULL,html-keyboard-response,112,198502,0.0-6.0-3.23,5138531,structured,2025/8/8 11:24,2025/8/8 11:28,white_screen,NULL,,NULL,NULL,NULL,NULL,NULL
NULL,html-keyboard-response,113,198754,0.0-6.0-0.24,5138531,structured,2025/8/8 11:24,2025/8/8 11:28,start_screen,252,<p>準備ができたらスペースキーを押してください。課題が始まります。</p>, ,NULL,NULL,NULL,NULL
NULL,html-keyboard-response,114,199761,0.0-6.0-1.24,5138531,structured,2025/8/8 11:24,2025/8/8 11:28,fixation,NULL,"<p style=""font-size:48px;"">+</p>",NULL,NULL,NULL,NULL,NULL
NULL,html-keyboard-response,115,201982,0.0-6.0-2.24,5138531,structured,2025/8/8 11:24,2025/8/8 11:28,rt_trial,2220,"<div id=""fixation"" style=""font-size: 48px;"">+</div>",tab,NULL,rt_trial,main,1908
NULL,html-keyboard-response,116,202494,0.0-6.0-3.24,5138531,structured,2025/8/8 11:24,2025/8/8 11:28,white_screen,NULL,,NULL,NULL,NULL,NULL,NULL
NULL,html-keyboard-response,117,202778,0.0-6.0-0.25,5138531,structured,2025/8/8 11:24,2025/8/8 11:28,start_screen,283,<p>準備ができたらスペースキーを押してください。課題が始まります。</p>, ,NULL,NULL,NULL,NULL
NULL,html-keyboard-response,118,203786,0.0-6.0-1.25,5138531,structured,2025/8/8 11:24,2025/8/8 11:28,fixation,NULL,"<p style=""font-size:48px;"">+</p>",NULL,NULL,NULL,NULL,NULL
NULL,html-keyboard-response,119,206874,0.0-6.0-2.25,5138531,structured,2025/8/8 11:24,2025/8/8 11:28,rt_trial,3088,"<div id=""fixation"" style=""font-size: 48px;"">+</div>",tab,NULL,rt_trial,main,2773
NULL,html-keyboard-response,120,207377,0.0-6.0-3.25,5138531,structured,2025/8/8 11:24,2025/8/8 11:28,white_screen,NULL,,NULL,NULL,NULL,NULL,NULL
NULL,html-keyboard-response,121,208010,0.0-6.0-0.26,5138531,structured,2025/8/8 11:24,2025/8/8 11:28,start_screen,633,<p>準備ができたらスペースキーを押してください。課題が始まります。</p>, ,NULL,NULL,NULL,NULL
NULL,html-keyboard-response,122,209022,0.0-6.0-1.26,5138531,structured,2025/8/8 11:24,2025/8/8 11:28,fixation,NULL,"<p style=""font-size:48px;"">+</p>",NULL,NULL,NULL,NULL,NULL
NULL,html-keyboard-response,123,210747,0.0-6.0-2.26,5138531,structured,2025/8/8 11:24,2025/8/8 11:28,rt_trial,1725,"<div id=""fixation"" style=""font-size: 48px;"">+</div>",tab,NULL,rt_trial,main,1245
NULL,html-keyboard-response,124,211254,0.0-6.0-3.26,5138531,structured,2025/8/8 11:24,2025/8/8 11:28,white_screen,NULL,,NULL,NULL,NULL,NULL,NULL
NULL,html-keyboard-response,125,211722,0.0-6.0-0.27,5138531,structured,2025/8/8 11:24,2025/8/8 11:28,start_screen,467,<p>準備ができたらスペースキーを押してください。課題が始まります。</p>, ,NULL,NULL,NULL,NULL
NULL,html-keyboard-response,126,212726,0.0-6.0-1.27,5138531,structured,2025/8/8 11:24,2025/8/8 11:28,fixation,NULL,"<p style=""font-size:48px;"">+</p>",NULL,NULL,NULL,NULL,NULL
NULL,html-keyboard-response,127,215315,0.0-6.0-2.27,5138531,structured,2025/8/8 11:24,2025/8/8 11:28,rt_trial,2588,"<div id=""fixation"" style=""font-size: 48px;"">+</div>",tab,NULL,rt_trial,main,2262
NULL,html-keyboard-response,128,215830,0.0-6.0-3.27,5138531,structured,2025/8/8 11:24,2025/8/8 11:28,white_screen,NULL,,NULL,NULL,NULL,NULL,NULL
NULL,html-keyboard-response,129,216242,0.0-6.0-0.28,5138531,structured,2025/8/8 11:24,2025/8/8 11:28,start_screen,412,<p>準備ができたらスペースキーを押してください。課題が始まります。</p>, ,NULL,NULL,NULL,NULL
NULL,html-keyboard-response,130,217245,0.0-6.0-1.28,5138531,structured,2025/8/8 11:24,2025/8/8 11:28,fixation,NULL,"<p style=""font-size:48px;"">+</p>",NULL,NULL,NULL,NULL,NULL
NULL,html-keyboard-response,131,220314,0.0-6.0-2.28,5138531,structured,2025/8/8 11:24,2025/8/8 11:28,rt_trial,3068,"<div id=""fixation"" style=""font-size: 48px;"">+</div>",tab,NULL,rt_trial,main,2775
NULL,html-keyboard-response,132,220819,0.0-6.0-3.28,5138531,structured,2025/8/8 11:24,2025/8/8 11:28,white_screen,NULL,,NULL,NULL,NULL,NULL,NULL
NULL,html-keyboard-response,133,221162,0.0-6.0-0.29,5138531,structured,2025/8/8 11:24,2025/8/8 11:28,start_screen,343,<p>準備ができたらスペースキーを押してください。課題が始まります。</p>, ,NULL,NULL,NULL,NULL
NULL,html-keyboard-response,134,222173,0.0-6.0-1.29,5138531,structured,2025/8/8 11:24,2025/8/8 11:28,fixation,NULL,"<p style=""font-size:48px;"">+</p>",NULL,NULL,NULL,NULL,NULL
NULL,html-keyboard-response,135,225494,0.0-6.0-2.29,5138531,structured,2025/8/8 11:24,2025/8/8 11:28,rt_trial,3321,"<div id=""fixation"" style=""font-size: 48px;"">+</div>",tab,NULL,rt_trial,main,2985
NULL,html-keyboard-response,136,225998,0.0-6.0-3.29,5138531,structured,2025/8/8 11:24,2025/8/8 11:28,white_screen,NULL,,NULL,NULL,NULL,NULL,NULL
NULL,html-keyboard-response,137,226299,0.0-7.0,5138531,structured,2025/8/8 11:24,2025/8/8 11:28,task_description,300,"<p style=""text-align: left"">おつかれさまでした。</p>
        <p><br><br></p>
        <p style=""text-align: left"">次に、本課題の際に行ってもらう課題の説明に移ります。</p>
        <p style=""text-align: left""><strong>準備ができたらスペースキーを押してください。</strong></p>", ,NULL,NULL,NULL,NULL
1,preload,0,25,0.0-0.0,3124577,control,2025/8/8 11:25,2025/8/8 11:28,NULL,NULL,NULL,NULL,NULL,NULL,NULL,NULL
1,fullscreen,1,17178,0.0-1.0,3124577,control,2025/8/8 11:25,2025/8/8 11:28,FullScreen,NULL,NULL,NULL,NULL,NULL,NULL,NULL
NULL,html-button-response,2,30216,0.0-2.0,3124577,control,2025/8/8 11:25,2025/8/8 11:28,check_volume,13036,"
        <p style=""text-align: left"">はじめに、この後の実験で使う音声の音量を調整してください。</p>
        <p style=""text-align: left"">以下に提示されている「音を流す」ボタンを押すと音（短いビープ音）が流れますので、</p>
        <p style=""text-align: left"">適切な音量となるようにPCやイヤホンの設定をお願いします。</p>
        <p><button id=""play-sound-button"">音を流す</button></p>
        <p style=""text-align: left""><b>この音は以降も使うので、ここで設定した内容は、この研究のすべての実験が終わるまで変更しないでください。</b></p>
        <p><br></p>
    ",0,NULL,NULL,NULL,NULL
NULL,instructions,3,64624,0.0-3.0,3124577,control,2025/8/8 11:25,2025/8/8 11:28,main_task_inst_tl,34407,NULL,NULL,Array,NULL,NULL,NULL
NULL,html-keyboard-response,4,66284,0.0-4.0-0.0,3124577,control,2025/8/8 11:25,2025/8/8 11:28,start_screen,1659,<p>準備ができたらスペースキーを押してください。課題が始まります。</p>, ,NULL,NULL,NULL,NULL
NULL,html-keyboard-response,5,67294,0.0-4.0-1.0,3124577,control,2025/8/8 11:25,2025/8/8 11:28,fixation,NULL,"<p style=""font-size:48px;"">+</p>",NULL,NULL,NULL,NULL,NULL
NULL,html-keyboard-response,6,70082,0.0-4.0-2.0,3124577,control,2025/8/8 11:25,2025/8/8 11:28,rt_trial,2787,"<div id=""fixation"" style=""font-size: 48px;"">+</div>",tab,NULL,rt_trial,practice,1960
