"ID","condition","order","time","probe_interval","response","response_time_for_beep","trial_text"
"367640","outline","0","25623","20000","output","1244","高校生の武田茂はせん"
"367640","outline","1","62471","32000","output","1194","高校生の武田茂は戦国シミュレーションゲームにハマっていた。
あまりにも好きすぎて徹夜することもしばしばあり、この日も茂は徹夜で"
"367640","outline","2","81558","16000","output","1195","高校生の武田茂は戦国シミュレーションゲームにハマっていた。
あまりにも好きすぎて徹夜することもしばしばあり、この日も茂は徹夜でゲームをし、そのまま眠ってしまった。
めざめ"
"6169624","outline","0","25514","19000","planning","1087","サッカーが嫌いだということは、実は賢いという人間であれ"
"367640","outline","3","120582","35000","output","1326","高校生の武田茂は戦国シミュレーションゲームにハマっていた。
あまりにも好きすぎて徹夜することもしばしばあり、この日も茂は徹夜でゲームをし、そのまま眠ってしまった。
茂が目覚めるとそこは自宅ではなく、なぜか森の中。
何かのイタズラと思いつつ、山中を彷徨っていると人と出会う。
しかしそのひ"
"6169624","outline","1","49461","21000","planning","695","サッカーが嫌いだということは、実は賢いという人間であれば堅実な内容であると言えます。世の中汚いビジネスに侵されており、とにかく"
"367640","outline","4","159559","36000","planning","1147","高校生の武田茂は戦国シミュレーションゲームにハマっていた。
あまりにも好きすぎて徹夜することもしばしばあり、この日も茂は徹夜でゲームをし、そのまま眠ってしまった。
茂が目覚めるとそこは自宅ではなく、なぜか森の中。
何かのイタズラと思いつつ、山中を彷徨っていると人と出会う。
しかしその人の服装は異常だった。
古くてボロい着物を着ており、明らかに現代日本人ではない。
はな"
"6169624","outline","2","86625","34000","output","595","サッカーが嫌いだということは、実は賢いという人間であれば堅実な内容であると言えます。世の中汚いビジネスに侵されており、とにかく鬱陶しさは否めないというのが実情です。またこういった偏向傾向を生んだのは、金儲けに目がくらんだマスコミそのものであり、嫌いなものをとこと"
"6169624","outline","3","111437","22000","output","1010","サッカーが嫌いだということは、実は賢いという人間であれば堅実な内容であると言えます。世の中汚いビジネスに侵されており、とにかく鬱陶しさは否めないというのが実情です。またこういった偏向傾向を生んだのは、金儲けに目がくらんだマスコミそのものであり、嫌いなものをとことん見たくない人間を破滅させることはみじんも理解していないとかんがえられ"
"367640","outline","5","190630","28000","output","1170","高校生の武田茂は戦国シミュレーションゲームにハマっていた。
あまりにも好きすぎて徹夜することもしばしばあり、この日も茂は徹夜でゲームをし、そのまま眠ってしまった。
茂が目覚めるとそこは自宅ではなく、なぜか森の中。
何かのイタズラと思いつつ、山中を彷徨っていると人と出会う。
しかしその人の服装は異常だった。
古くてボロい着物を着ており、明らかに現代日本人ではない。
話してみると言葉は一応通じるが、やはり現代日本語と異なっている。
ここはどこかと尋ねてみると、なんとかい"
"6169624","outline","4","135069","21000","output","712","サッカーが嫌いだということは、実は賢いという人間であれば堅実な内容であると言えます。世の中汚いビジネスに侵されており、とにかく鬱陶しさは否めないというのが実情です。またこういった偏向傾向を生んだのは、金儲けに目がくらんだマスコミそのものであり、嫌いなものをとことん見たくない人間を破滅させることはみじんも理解していないと考えられます。ゆえに美的センスに欠ける内容は、自分自身で排除して欠航であり、稚拙なスポーツ"
"2259197","outline","0","26592","20000","planning","2513","なんで"
"367640","outline","6","236086","42000","output","1321","高校生の武田茂は戦国シミュレーションゲームにハマっていた。
あまりにも好きすぎて徹夜することもしばしばあり、この日も茂は徹夜でゲームをし、そのまま眠ってしまった。
茂が目覚めるとそこは自宅ではなく、なぜか森の中。
何かのイタズラと思いつつ、山中を彷徨っていると人と出会う。
しかしその人の服装は異常だった。
古くてボロい着物を着ており、明らかに現代日本人ではない。
話してみると言葉は一応通じるが、やはり現代日本語と異なっている。
ここはどこかと尋ねてみると、なんと甲斐の国だという。
治めているのは武田信玄で、戦国時代の真っただ中に転生してしまったことに茂のは気づくのだ"
"367640","outline","7","254678","16000","output","1080","高校生の武田茂は戦国シミュレーションゲームにハマっていた。
あまりにも好きすぎて徹夜することもしばしばあり、この日も茂は徹夜でゲームをし、そのまま眠ってしまった。
茂が目覚めるとそこは自宅ではなく、なぜか森の中。
何かのイタズラと思いつつ、山中を彷徨っていると人と出会う。
しかしその人の服装は異常だった。
古くてボロい着物を着ており、明らかに現代日本人ではない。
話してみると言葉は一応通じるが、やはり現代日本語と異なっている。
ここはどこかと尋ねてみると、なんと甲斐の国だという。
治めているのは武田信玄で、戦国時代の真っただ中に転生してしまったことに茂のは気づくのだった。

茂は武田信玄が大好きで、ゲームでも"
"6169624","outline","5","182556","45000","output","527","サッカーが嫌いだということは、実は賢いという人間であれば堅実な内容であると言えます。世の中汚いビジネスに侵されており、とにかく鬱陶しさは否めないというのが実情です。またこういった偏向傾向を生んだのは、金儲けに目がくらんだマスコミそのものであり、嫌いなものをとことん見たくない人間を破滅させることはみじんも理解していないと考えられます。ゆえに美的センスに欠ける内容は、自分自身で排除して欠航であり、稚拙なスポーツニュースは一切見聞きしないというのが賢い人が行うべき行動なのです。同時に世の中に振り回されることを防ぐには、自分自身で好きなものを有"
"1034994","outline","0","38495","31000","planning","3071",
"2259197","outline","1","56415","26000","planning","2162","なんでこんな思いをしなければならないんだ。"
"5041386","outline","0","32631","28000","output","1383","ここはネズミの国で"
"367640","outline","8","276646","19000","planning","1093","高校生の武田茂は戦国シミュレーションゲームにハマっていた。
あまりにも好きすぎて徹夜することもしばしばあり、この日も茂は徹夜でゲームをし、そのまま眠ってしまった。
茂が目覚めるとそこは自宅ではなく、なぜか森の中。
何かのイタズラと思いつつ、山中を彷徨っていると人と出会う。
しかしその人の服装は異常だった。
古くてボロい着物を着ており、明らかに現代日本人ではない。
話してみると言葉は一応通じるが、やはり現代日本語と異なっている。
ここはどこかと尋ねてみると、なんと甲斐の国だという。
治めているのは武田信玄で、戦国時代の真っただ中に転生してしまったことに茂のは気づくのだった。

茂は武田信玄が大好きで、ゲームでも武田信玄を選ぶことが多かった。
それだ"
"6169624","outline","6","201372","16000","output","670","サッカーが嫌いだということは、実は賢いという人間であれば堅実な内容であると言えます。世の中汚いビジネスに侵されており、とにかく鬱陶しさは否めないというのが実情です。またこういった偏向傾向を生んだのは、金儲けに目がくらんだマスコミそのものであり、嫌いなものをとことん見たくない人間を破滅させることはみじんも理解していないと考えられます。ゆえに美的センスに欠ける内容は、自分自身で排除して欠航であり、稚拙なスポーツニュースは一切見聞きしないというのが賢い人が行うべき行動なのです。同時に世の中に振り回されることを防ぐには、自分自身で好きなものを優先させて自ら生きるということが大事にｎ"
"2259197","outline","2","79574","19000","planning","2017","なんで俺がこんな思いをしなければならないんだ。"
"769122","outline","0","53071","45000","output","1102","黒猫のミーは臆病な男の子。森の中で1人で過ごしていたけれど、そんな彼にもどうしてもわすれられな"
"5041386","outline","1","66423","30000","output","1471","ここはネズミの国です。ネズミたちの仲間が平和にのびのび暮らしていました。
しかしある時から、ドラ猫のどーらｇ"
"367640","outline","9","298798","19000","output","1010","高校生の武田茂は戦国シミュレーションゲームにハマっていた。
あまりにも好きすぎて徹夜することもしばしばあり、この日も茂は徹夜でゲームをし、そのまま眠ってしまった。
茂が目覚めるとそこは自宅ではなく、なぜか森の中。
何かのイタズラと思いつつ、山中を彷徨っていると人と出会う。
しかしその人の服装は異常だった。
古くてボロい着物を着ており、明らかに現代日本人ではない。
話してみると言葉は一応通じるが、やはり現代日本語と異なっている。
ここはどこかと尋ねてみると、なんと甲斐の国だという。
治めているのは武田信玄で、戦国時代の真っただ中に転生してしまったことに茂のは気づくのだった。

茂は武田信玄が大好きで、ゲームでも武田信玄を選ぶことが多かった。
そういった経緯から茂は武田信玄率いる武田家を盛り立てていこうとかんがえる"
"5924178","outline","0","43559","40000","output","1243","太郎君はお母さんに一人でスーパーに行ってりんごをに買ってきてと頼まれた。
"
"1034994","outline","1","83366","40000","planning","2147",
"1451340","outline","0","50515","45000","output","2673","ある川の中に一匹の真っ黒い鯉が住んでいたが、周りの鯉たちはとてもきれいな柄をしており"
"769122","outline","1","83839","26000","output","871","黒猫のミーは臆病な男の子。森の中で1人で過ごしていたけれど、そんな彼にもどうしても忘れられない出会いがありました。それが、子猫の頃にお花を摘みにやってきた女の子です。"
"367640","outline","10","323295","21000","output","1703","高校生の武田茂は戦国シミュレーションゲームにハマっていた。
あまりにも好きすぎて徹夜することもしばしばあり、この日も茂は徹夜でゲームをし、そのまま眠ってしまった。
茂が目覚めるとそこは自宅ではなく、なぜか森の中。
何かのイタズラと思いつつ、山中を彷徨っていると人と出会う。
しかしその人の服装は異常だった。
古くてボロい着物を着ており、明らかに現代日本人ではない。
話してみると言葉は一応通じるが、やはり現代日本語と異なっている。
ここはどこかと尋ねてみると、なんと甲斐の国だという。
治めているのは武田信玄で、戦国時代の真っただ中に転生してしまったことに茂のは気づくのだった。

茂は武田信玄が大好きで、ゲームでも武田信玄を選ぶことが多かった。
そういった経緯から茂は武田信玄率いる武田家を盛り立てていこうと考える。
しかし問題はどうやって武田家にツテを作るかだ。
"
"5924178","outline","1","63583","17000","output","1460","太郎はお母さんに一人でスーパーに行ってりんごをに買ってきてと頼まれた。
それは、5歳の太郎の初めてのお使いだった"
"6169624","outline","7","247651","44000","output","833","＜人はなぜつまらないスポーツなｄ＞
サッカーが嫌いだということは、実は賢いという人間であれば堅実な内容であると言えます。世の中汚いビジネスに侵されており、とにかく鬱陶しさは否めないというのが実情です。またこういった偏向傾向を生んだのは、金儲けに目がくらんだマスコミそのものであり、嫌いなものをとことん見たくない人間を破滅させることはみじんも理解していないと考えられます。ゆえに美的センスに欠ける内容は、自分自身で排除して欠航であり、稚拙なスポーツニュースは一切見聞きしないというのが賢い人が行うべき行動なのです。同時に世の中に振り回されることを防ぐには、自分自身で好きなものを優先させて自ら生きるということが大事になってきます。人間らしく生きるには、人間自身が自らを証明しなければなりません。"
"2259197","outline","3","121735","38000","planning","1847","なんで俺がこんな思いをしなければならないんだ。こうなったらやられるよりやる側に立って、他の人間にも同じ思い"
"1034994","outline","2","112681","24000","planning","1820","目を開けた瞬間、直哉は息を呑んだ。
　頭上には、見たこともないほど青く澄んだ空。木々は高くそびえ、葉の間からこぼれる光は金色に輝いていた。
　??ここは、どこだ？
　最後に覚えているのは、深夜まで残業して、帰宅途中に急な眠気に襲われたことだけ。

　足音がした。振り返ると、そこには一人の少女が立っていた。
　淡い銀色の髪に、湖のような瞳。背には、淡く光を放つ羽のようなものが揺れている。
「あなた……人間？」
　少女の声は透き通っていたが、その瞳には警戒の色があった。

　突然、矢が飛んできた。少女は瞬時に手をかざし、空中で矢は氷の結晶となって砕け散る。
「急いで！　精霊たちが狙われているの！」
　そう告げると、彼女は駆け出した。直哉は訳も分からぬまま、その後を追った。"
"5041386","outline","2","106855","37000","output","1431","ここはネズミの国です。ネズミたちの仲間が平和にのびのび暮らしていました。
その国に、ネズミのしょうね
しかしある時から、ドラ猫のドーラが国にやってきて大暴れしました。
"
"769122","outline","2","106583","19000","output","887","黒猫のミーは臆病な男の子。森の中で1人で過ごしていたけれど、そんな彼にもどうしても忘れられない出会いがありました。それが、子猫の頃に森にお花を摘みにやってきた女の子です。
めったに人経訪れない"
"1451340","outline","1","75295","20000","revision","1232","ある川の中に一匹の真っ黒い鯉が住んでいたが、周りの鯉たちはとてもきれいな柄をしておりそれをみた黒い鯉はなや"
"5144214","outline","0","35439","30000","output","1636","太郎は、どこにでもいるような平凡なサラリーマンだった。
太郎は、いつも通りｓ"
"2259197","outline","4","145127","19000","planning","2017","なんで俺がこんな思いをしなければならないんだ。こうなったらやられるよりやる側に立って、他の人間にも同じ思いを味わわせてやる。"
"5924178","outline","2","90999","25000","output","1181","太郎はお母さんに一人でスーパーに行ってりんごをに買ってきてと頼まれた。
それは、5歳の太郎の初めてのお使いだった。
人見知りで恥ずかしがり屋の太郎は一人でおつかいができるか不安だったが、大好き"
"1610899","outline","0","49224","41000","output","3525","ある日、人間の家の中で、体の線が細く、真っ白な蜘蛛が生まれました。その白"
"6169624","outline","8","278283","28000","revision","1040","＜人はなぜつまらないスポーツに関心を示してしまうのか？＞
サッカーが嫌いだということは、実は賢いという人間であれば堅実な内容であると言えます。世の中はとにかく汚いビジネスに侵されており、とにかく鬱陶しさは否めないというのが実情です。またこういった偏向傾向を生んだのは、金儲けに目がくらんだマスコミそのものであり、嫌いなものをとことん見たくない人間を破滅させることはみじんも理解していないと考えられます。ゆえに美的センスに欠ける内容は、自分自身で排除して欠航であり、稚拙なスポーツニュースは一切見聞きしないというのが賢い人が行うべき行動なのです。同時に世の中に振り回されることを防ぐには、自分自身で好きなものを優先させて自ら生きるということが大事になってきます。人間らしく生きるには、人間自身が自らを証明しなければなりません。"
"5041386","outline","3","129191","19000","output","1068","ここはネズミの国です。ネズミたちの仲間が平和にのびのび暮らしていました。
その国に、ネズミの少年チュウタがいました。
しかしある時から、ドラ猫のドーラが国にやってきて大暴れしました。
"
"367640","outline","11","362654","36000","planning","1378","高校生の武田茂は戦国シミュレーションゲームにハマっていた。
あまりにも好きすぎて徹夜することもしばしばあり、この日も茂は徹夜でゲームをし、そのまま眠ってしまった。
茂が目覚めるとそこは自宅ではなく、なぜか森の中。
何かのイタズラと思いつつ、山中を彷徨っていると人と出会う。
しかしその人の服装は異常だった。
古くてボロい着物を着ており、明らかに現代日本人ではない。
話してみると言葉は一応通じるが、やはり現代日本語と異なっている。
ここはどこかと尋ねてみると、なんと甲斐の国だという。
治めているのは武田信玄で、戦国時代の真っただ中に転生してしまったことに茂のは気づくのだった。

茂は武田信玄が大好きで、ゲームでも武田信玄を選ぶことが多かった。
そういった経緯から茂は武田信玄率いる武田家を盛り立てていこうと考える。
しかし問題はどうやって武田家にツテを作るかだ。
"
"1034994","outline","3","148446","32000","planning","2062","目を開けた瞬間、直哉は息を呑んだ。
　頭上には、見たこともないほど青く澄んだ空。木々は高くそびえ、葉の間からこぼれる光は金色に輝いていた。
　ここは、どこだ？
　最後に覚えているのは、深夜まで残業して、帰宅途中に急な眠気に襲われたことだけ。

　足音がした。振り返ると、そこには一人の少女が立っていた。
　淡い銀色の髪に、湖のような瞳。背には、淡く光を放つ羽のようなものが揺れている。
「あなた……人間？」
　少女の声は透き通っていたが、その瞳には警戒の色があった。

　突然、矢が飛んできた。少女は瞬時に手をかざし、空中で矢は氷の結晶となって砕け散る。
「急いで！　精霊たちが狙われているの！」
　そう告げると、彼女は駆け出した。直哉は訳も分からぬまま、その後を追った。
少女の名はリィナ。森に棲む精霊たちの守護者であり、人間の狩人たちから彼らを守っているという。
　直哉は、彼女の真っ直ぐな信念に心を打たれ、共に旅をすることを決意する。

　旅の道中、二人は獣人の村、地下に暮らすドワーフ、天空の浮島に住む翼人など、さまざまな種族と出会う。
　しかしどの地にも、人間による精霊狩りの影が忍び寄っていた。
　それぞれの種族には、戦わざるを得ない事情や深い悲しみがあった。"
"6169624","outline","9","297054","16000","revision","1233","＜人はなぜつまらないスポーツに関心を示してしまうのか？＞
サッカーが嫌いだということは、実は賢いという人間であれば堅実な内容であると言えます。世の中はとにかく汚いビジネスに侵されており、鬱陶しさが否めないというのが実情です。またこういった偏向傾向を生んだのは、金儲けに目がくらんだマスコミそのものであり、嫌いなものをとことん見たくない人間を破滅させることはみじんも理解していないと考えられます。ゆえに美的センスに欠ける内容は、自分自身で排除して欠航であり、稚拙なスポーツニュースは一切見聞きしないというのが賢い人が行うべき行動なのです。同時に世の中に振り回されることを防ぐには、自分自身で好きなものを優先させて自ら生きるということが大事になってきます。人間らしく生きるには、人間自身が自らを証明しなければなりません。"
"1451340","outline","2","111721","32000","output","2049","ある川の中に一匹の真っ黒い鯉が住んでいたが、周りの鯉たちはとてもきれいな柄をしておりそれをみた黒い鯉は悩んでいた。
ある日、大雨が何日も降り注ぎ、かわが"
"5924178","outline","3","120574","27000","output","1275","太郎はお母さんに一人でスーパーに行ってりんごをに買ってきてと頼まれた。
それは、5歳の太郎の初めてのお使いだった。
人見知りで恥ずかしがり屋の太郎は一人でおつかいができるか不安だったが、大好きなお母さんのため、おつかいに行く事を決意する。
お母さんからおかねをうｋ"
"769122","outline","3","150886","38000","output","823","黒猫のミーは臆病な男の子。森の中で1人で過ごしていたけれど、そんな彼にもどうしても忘れられない出会いがありました。それが、子猫の頃に森にお花を摘みにやってきた女の子です。
その様子を木陰からじっと見守っていましたが、子猫の陰に気づいた女の子が"
"1610899","outline","1","82935","29000","revision","3061","ある日、人間の家の中で、体の線が細くて柔らかい、真っ白な蜘蛛が生まれました。その白蜘蛛は"
"5144214","outline","1","84631","44000","output","1827","太郎は、どこにでもいるような平凡なサラリーマンだった。
太郎は、いつも通り仕事を終え、いつものスーパーに寄った後、家に帰った。
家に帰った太郎は、玄関の前に、身に覚えのないにもつが"
"5081515","outline","0","37494","32000","output","2194","私の住んでいる場所は地面の上だった。暑い時も、寒い時も、ずっと"
"1451340","outline","3","136013","19000","output","1106","ある川の中に一匹の真っ黒い鯉が住んでいたが、周りの鯉たちはとてもきれいな柄をしておりそれをみた黒い鯉は悩んでいた。
ある日、大雨が何日も降り注ぎ、住んでいた川があふれかえり"
"5041386","outline","4","170799","38000","other","1710","ここはネズミの国です。ネズミたちの仲間が平和にのびのび暮らしていました。
その国に、ネズミの少年チュウタがいました。チュウタは他のネズミより体が小さいことにコンプレックスを持っていましたが、友達に恵まれそれなりに楽しく暮らしていました
しかしある時から、ドラ猫のドーラが国にやってきて大暴れしました。
"
"6169624","outline","10","328586","28000","revision","457","＜人はなぜつまらないスポーツに関心を示してしまうのか？＞
サッカーが嫌いだということは、実は賢いという人間であれば堅実な内容であると言えます。世の中はとにかく汚いビジネスに侵されており、鬱陶しさが否めないというのが実情です。またこういった偏向傾向を生んだのは、金儲けに目がくらんだマスコミそのものであり、嫌いなものをとことん見たくない人間を破滅させることはみじんも理解していないと考えられます。それから美的センスに欠ける内容は、自分自身で排除して欠航であり、稚拙なスポーツニュースは一切見聞きしないというのが賢い人が行うべき行動なのです。同時に世の中に振り回されることを防ぐには、自分自身で好きなものを優先させて自ら生きるということが大事になってきます。人間らしく生きるには、人間自身が自らを証明しなければなりません。"
"367640","outline","12","407062","42000","planning","1334","高校生の武田茂は戦国シミュレーションゲームにハマっていた。
あまりにも好きすぎて徹夜することもしばしばあり、この日も茂は徹夜でゲームをし、そのまま眠ってしまった。
茂が目覚めるとそこは自宅ではなく、なぜか森の中。
何かのイタズラと思いつつ、山中を彷徨っていると人と出会う。
しかしその人の服装は異常だった。
古くてボロい着物を着ており、明らかに現代日本人ではない。
話してみると言葉は一応通じるが、やはり現代日本語と異なっている。
ここはどこかと尋ねてみると、なんと甲斐の国だという。
治めているのは武田信玄で、戦国時代の真っただ中に転生してしまったことに茂のは気づくのだった。

茂は武田信玄が大好きで、ゲームでも武田信玄を選ぶことが多かった。
そういった経緯から茂は武田信玄率いる武田家を盛り立てていこうと考える。
しかし問題はどうやって武田家にツテを作るかだ。
"
"769122","outline","4","176606","22000","output","850","黒猫のミーは臆病な男の子。森の中で1人で過ごしていたけれど、そんな彼にもどうしても忘れられない出会いがありました。それが、子猫の頃に森にお花を摘みにやってきた女の子です。
その様子を木陰からじっと見守っていましたが、子猫の陰に気づいた女の子が優しく話しかけてくれました。その時に、こなこはじぶんが"
"5924178","outline","4","148391","25000","output","1387","太郎はお母さんに一人でスーパーに行ってりんごをに買ってきてと頼まれた。
それは、5歳の太郎の初めてのお使いだった。
人見知りで恥ずかしがり屋の太郎は一人でおつかいができるか不安だったが、大好きなお母さんのため、おつかいに行く事を決意する。
お母さんからお金を受け取り家を出た太郎、しかし、しばらく進むと初めてのおつかいの緊張のせいか、いつも行っているすーぱ"
"5144214","outline","2","111646","22000","output","2288","太郎は、どこにでもいるような平凡なサラリーマンだった。
太郎は、いつも通り仕事を終え、いつものスーパーに寄った後、家に帰った。
家に帰った太郎は、玄関の前に、身に覚えのないに荷物が届いていることに気づいた。
宛先を確認すると、"
"1034994","outline","4","196582","43000","planning","1941","目を開けた瞬間、直哉は息を呑んだ。
　頭上には、見たこともないほど青く澄んだ空。木々は高くそびえ、葉の間からこぼれる光は金色に輝いていた。
　ここは、どこだ？
　最後に覚えているのは、深夜まで残業して、帰宅途中に急な眠気に襲われたことだけ。

　足音がした。振り返ると、そこには一人の少女が立っていた。
　淡い銀色の髪に、湖のような瞳。背には、淡く光を放つ羽のようなものが揺れている。
「あなた……人間？」
　少女の声は透き通っていたが、その瞳には警戒の色があった。

　突然、矢が飛んできた。少女は瞬時に手をかざし、空中で矢は氷の結晶となって砕け散る。
「急いで！　精霊たちが狙われているの！」
　そう告げると、彼女は駆け出した。直哉は訳も分からぬまま、その後を追った。
少女の名はリィナ。森に棲む精霊たちの守護者であり、人間の狩人たちから彼らを守っているという。
　直哉は、彼女の真っ直ぐな信念に心を打たれ、共に旅をすることを決意する。

　旅の道中、二人は獣人の村、地下に暮らすドワーフ、天空の浮島に住む翼人など、さまざまな種族と出会う。
　しかしどの地にも、人間による精霊狩りの影が忍び寄っていた。
　それぞれの種族には、戦わざるを得ない事情や深い悲しみがあった。
やがて二人は、精霊を狙う黒衣の男??「影喰い」と呼ばれる存在と対峙する。
　彼は異世界の均衡を崩し、精霊の命を力に変えて世界を支配しようとしていた。
「直哉、お前は選べ。この世界を救うか、元の世界に戻るか」
　影喰いの言葉は、直哉の胸を突き刺す。

　戦いの果てに影喰いは倒れる。しかし、世界を救った後、精霊たちは彼に別れを告げる。
　リィナは笑顔を浮かべたが、その瞳にはわずかな涙が光っていた。
「……あなたの世界にも、きっと守るべきものがあるでしょう？」
直哉は元の世界に戻ることを選んだ。
　通勤電車の窓から見える景色は以前と変わらない。しかし、彼の心には異世界の森の風、仲間たちの笑い声、リィナの微笑みが残っていた。

　その日から、彼は小さな優しさを積み重ねるようになった。道端の花を守り、困っている人に手を差し伸べ、日常の中で精霊のような存在を見つけ出す。
　??あの世界で学んだことは、今も確かに生きている。"
"2100161","outline","0","28840","23000","output","2927","真っ白な猫が、したの"
"5041386","outline","5","191119","16000","revision","1253","ここはネズミの国です。ネズミたちの仲間が平和にのびのび暮らしていました。
その国に、ネズミの少年チュウタがいました。チュウタは他のネズミより体が小さいことにコンプレックスを持っていましたが、友達に恵まれそれなりに楽しく暮らしていました。

しかしある時、ドラ猫のドーラが国にやってきて大暴れしました。
"
"2592945","outline","0","41650","35000","planning","1944",
"367640","outline","13","424390","15000","planning","1207","高校生の武田茂は戦国シミュレーションゲームにハマっていた。
あまりにも好きすぎて徹夜することもしばしばあり、この日も茂は徹夜でゲームをし、そのまま眠ってしまった。
茂が目覚めるとそこは自宅ではなく、なぜか森の中。
何かのイタズラと思いつつ、山中を彷徨っていると人と出会う。
しかしその人の服装は異常だった。
古くてボロい着物を着ており、明らかに現代日本人ではない。
話してみると言葉は一応通じるが、やはり現代日本語と異なっている。
ここはどこかと尋ねてみると、なんと甲斐の国だという。
治めているのは武田信玄で、戦国時代の真っただ中に転生してしまったことに茂のは気づくのだった。

茂は武田信玄が大好きで、ゲームでも武田信玄を選ぶことが多かった。
そういった経緯から茂は武田信玄率いる武田家を盛り立てていこうと考える。
しかし問題はどうやって武田家にツテを作るかだ。
"
"1610899","outline","2","123928","35000","output","4190","ある日、人間の家の中で、体の線が細くて柔らかい、真っ白な蜘蛛が生まれました。その白蜘蛛は、人間の家の中で、暑い冬も寒い冬も、台風の日も、大雪の日も、か"
"6169624","outline","11","356122","25000","revision","955","＜人はなぜつまらないスポーツに関心を示してしまうのか？＞
サッカーが嫌いだということは、実は賢いという人間であれば堅実な内容であると言えます。世の中はとにかく汚いビジネスに侵されており、鬱陶しさが否めないというのが実情です。またこういった偏向傾向を生んだのは、金儲けに目がくらんだマスコミそのものであり、嫌いなものをとことん見たくない人間を破滅させることはみじんも理解していないと考えられます。それから美的センスに欠ける内容は、自分自身で排除して欠航であり、稚拙なスポーツニュースは一切見聞きしないというのが賢い人が行うべき行動なのです。同時に世の中に振り回されることを防ぐには、自分自身で好きなものを優先させて自ら生きるということが大事になってきます。人間らしく生きるには、人間自身が自らを証明しなければなりません。これが本当の面白さなのです。"
"1451340","outline","4","172727","33000","planning","1012","ある川の中に一匹の真っ黒い鯉が住んでいたが、周りの鯉たちはとてもきれいな柄をしておりそれをみた黒い鯉は悩んでいた。
ある日、大雨が何日も降り注ぎ、住んでいた川があふれかえり黒い鯉は流されてしまった。"
"5081515","outline","1","85079","43000","output","1592","私の住んでいる場所は地面の上だった。暑い時も、寒い時も、ずっと一人だった。ごはんも置かれるだけで、ひとり"
"169251","outline","0","45336","37000","planning","1773","チュウタは仲間のネズミ達を集めて演説を始めた。
「この」"
"1610899","outline","3","143455","16000","output","1703","ある日、人間の家の中で、体の線が細くて柔らかい、真っ白な蜘蛛が生まれました。その白蜘蛛は、暑い冬も寒い冬も、台風の日も、大雪の日も、人間の家の中で快適に暮らしていました。"
"5041386","outline","6","217999","22000","revision","1893","ここはネズミの国です。ネズミたちの仲間が平和にのびのび暮らしていました。
その国に、ネズミの少年チュウタがいました。チュウタは他のネズミより体が小さいことにコンプレックスを持っていましたが、友達に恵まれそれなりに楽しく暮らしていました。

しかしある時、ドラ猫のドーラが国にやってきて大暴れしました。
ドーラはネズミたちをわが物顔で
"
"5924178","outline","5","190071","39000","output","1523","太郎はお母さんに一人でスーパーに行ってりんごをに買ってきてと頼まれた。
それは、5歳の太郎の初めてのお使いだった。
人見知りで恥ずかしがり屋の太郎は一人でおつかいができるか不安だったが、大好きなお母さんのため、おつかいに行く事を決意する。
お母さんからお金を受け取り家を出た太郎、しかし、しばらく進むと初めてのおつかいの緊張のせいか、いつも行っているスーパーへの道がわからなくなってしまった。
周りは比較的人通りが多く、道を尋ねる事もでｋ"
"769122","outline","5","222526","40000","output","1481","黒猫のミーは臆病な男の子。森の中で1人で過ごしていたけれど、そんな彼にもどうしても忘れられない出会いがありました。それが、子猫の頃に森にお花を摘みにやってきた女の子です。
その様子を木陰からじっと見守っていましたが、子猫の陰に気づいた女の子が優しく話しかけてくれました。その時に、子猫は「ミー」という名前をもらったのです。
女のことはそれきりです、やがて月日は流れ、"
"1451340","outline","5","198747","20000","output","2087","ある川の中に一匹の真っ黒い鯉が住んでいたが、周りの鯉たちはとてもきれいな柄をしておりそれをみた黒い鯉は悩んでいた。
ある日、大雨が何日も降り注ぎ、住んでいた川があふれかえり黒い鯉は流されてしまった。
目が覚めたら"
"2100161","outline","1","69793","36000","output","3042","真っ白な猫が、下の世界を眺めています。「私と一緒にくらす人はｄ」"
"4415810","outline","0","46018","39000","output","1264","今日も都会の喧騒にうんざりとした彼は足取りも重く"
"5144214","outline","3","158455","42000","output","2124","太郎は、どこにでもいるような平凡なサラリーマンだった。
太郎は、いつも通り仕事を終え、いつものスーパーに寄った後、家に帰った。
家に帰った太郎は、玄関の前に、送り主不明の身に覚えのないに荷物が届いていることに気づいた。
宛先を確認すると、自分あてだったので、不思議に思いながらも、太郎は"
"1034994","outline","5","243326","43000","output","1666","目を開けた瞬間、直哉は息を呑んだ。
　頭上には、見たこともないほど青く澄んだ空。木々は高くそびえ、葉の間からこぼれる光は金色に輝いていた。
　ここは、どこだ？
　最後に覚えているのは、深夜まで残業して、帰宅途中に急な眠気に襲われたことだけ。

　足音がした。振り返ると、そこには一人の少女が立っていた。
　淡い銀色の髪に、湖のような瞳。背には、淡く光を放つ羽のようなものが揺れている。
「あなた……人間？」
　少女の声は透き通っていたが、その瞳には警戒の色があった。

　突然、矢が飛んできた。少女は瞬時に手をかざし、空中で矢は氷の結晶となって砕け散る。
「急いで！　精霊たちが狙われているの！」
　そう告げると、彼女は駆け出した。直哉は訳も分からぬまま、その後を追った。
少女の名はリィナ。森に棲む精霊たちの守護者であり、人間の狩人たちから彼らを守っているという。
　直哉は、彼女の真っ直ぐな信念に心を打たれ、共に旅をすることを決意する。

　旅の道中、二人は獣人の村、地下に暮らすドワーフ、天空の浮島に住む翼人など、さまざまな種族と出会う。
　しかしどの地にも、人間による精霊狩りの影が忍び寄っていた。
　それぞれの種族には、戦わざるを得ない事情や深い悲しみがあった。
やがて二人は、精霊を狙う黒衣の男??「影喰い」と呼ばれる存在と対峙する。
　彼は異世界の均衡を崩し、精霊の命を力に変えて世界を支配しようとしていた。
「直哉、お前は選べ。この世界を救うか、元の世界に戻るか」
　影喰いの言葉は、直哉の胸を突き刺す。

　戦いの果てに影喰いは倒れる。しかし、世界を救った後、精霊たちは彼に別れを告げる。
　リィナは笑顔を浮かべたが、その瞳にはわずかな涙が光っていた。
「……あなたの世界にも、きっと守るべきものがあるでしょう？」
直哉は元の世界に戻ることを選んだ。
　通勤電車の窓から見える景色は以前と変わらない。しかし、彼の心には異世界の森の風、仲間たちの笑い声、リィナの微笑みが残っていた。

　その日から、彼は小さな優しさを積み重ねるようになった。道端の花を守り、困っている人に手を差し伸べ、日常の中で精霊のような存在を見つけ出す。
あの世界で学んだことは、今も確かに生きている。"
"2592945","outline","1","82933","37000","output","1615","コウタは今日も灼熱の道路工事の仕事に精を出していた。のぞｎ"
"5081515","outline","2","108454","19000","output","1954","私の住んでいる場所は地面の上だった。暑い時も、寒い時も、ずっと一人だった。ごはんも置かれるだけで、一人で食べた。飲み水もずっと置きっぱなし"
"367640","outline","14","472111","44000","output","1296","高校生の武田茂は戦国シミュレーションゲームにハマっていた。
あまりにも好きすぎて徹夜することもしばしばあり、この日も茂は徹夜でゲームをし、そのまま眠ってしまった。
茂が目覚めるとそこは自宅ではなく、なぜか森の中。
何かのイタズラと思いつつ、山中を彷徨っていると人と出会う。
しかしその人の服装は異常だった。
古くてボロい着物を着ており、明らかに現代日本人ではない。
話してみると言葉は一応通じるが、やはり現代日本語と異なっている。
ここはどこかと尋ねてみると、なんと甲斐の国だという。
治めているのは武田信玄で、戦国時代の真っただ中に転生してしまったことに茂のは気づくのだった。

茂は武田信玄が大好きで、ゲームでも武田信玄を選ぶことが多かった。
そういった経緯から茂は武田信玄率いる武田家を盛り立てていこうと考える。
しかし問題はどうやって武田家にツテを作るかだ。
今の茂はルームウェアを着た、ただの怪しい人間。
幸いであった"
"769122","outline","6","241614","16000","output","711","黒猫のミーは臆病な男の子。森の中で1人で過ごしていたけれど、そんな彼にもどうしても忘れられない出会いがありました。それが、子猫の頃に森にお花を摘みにやってきた女の子です。
その様子を木陰からじっと見守っていましたが、子猫の陰に気づいた女の子が優しく話しかけてくれました。その時に、子猫は「ミー」という名前をもらったのです。
女のことはそれきりでしたが、ミーは彼女のことをよくおもいだしていま、やがて月日は流れ、"
"1610899","outline","4","174840","27000","output","2891","　ある日、人間の家の中で、体の線が細くて柔らかい、真っ白な蜘蛛が生まれました。その白蜘蛛は、暑い冬も寒い冬も、台風の日も、大雪の日も、人間の家の中で快適に暮らしていました。
　ある日、人間の家の外から、黒蜘蛛がいえｎ"
"6169624","outline","12","402597","44000","revision","984","＜人はなぜつまらないと初めからわスポーツに関心を示してしまうのか？＞

サッカーが嫌いだということは、実は賢いという人間であれば堅実な内容であると言えます。世の中はとにかく汚いビジネスに侵されており、鬱陶しさが否めないというのが実情です。
またこういった偏向傾向を生んだのは、金儲けに目がくらんだマスコミそのものであり、嫌いなものをとことん見たくない人間を破滅させることはみじんも理解していないと考えられます。
それから美的センスに欠ける内容は、自分自身で排除して欠航であり、稚拙なスポーツニュースは一切見聞きしないというのが賢い人が行うべき行動なのです。同時に世の中に振り回されることを防ぐには、自分自身で好きなものを優先させて自ら生きるということが大事になってきます。
人間らしく生きるには、人間自身が自らを証明しなければなりません。
これが本当の面白さなのです。"
"5924178","outline","6","223494","31000","output","1099","太郎はお母さんに一人でスーパーに行ってりんごをに買ってきてと頼まれた。
それは、5歳の太郎の初めてのお使いだった。
人見知りで恥ずかしがり屋の太郎は一人でおつかいができるか不安だったが、大好きなお母さんのため、おつかいに行く事を決意する。
お母さんからお金を受け取り家を出た太郎、しかし、しばらく進むと初めてのおつかいの緊張のせいか、いつも行っているスーパーへの道がわからなくなってしまった。
周りは比較的人通りが多く、道を尋ねる事もできるが、人見知りの太郎は知らない人に声を掛ける事がなかなかできない。
しかし、このままではお母さんｎ"
"5041386","outline","7","255383","32000","revision","1555","ここはネズミの国です。ネズミたちの仲間が平和にのびのび暮らしていました。
その国に、ネズミの少年チュウタがいました。チュウタは他のネズミより体が小さいことにコンプレックスを持っていましたが、友達に恵まれそれなりに楽しく暮らしていました。

しかしある時、ドラ猫のドーラが国にやってきて大暴れしました。
ドーラはネズミたちを支配するようになりました。
"
"169251","outline","1","92327","43000","output","1699","チュウタは仲間のネズミ達を集めて演説を始めた。
「このままだと、人間やカラス達に命を奪われてしまう。もっと安心して暮らせる場所に移住しよう」
仲間のネズミ"
"2100161","outline","2","103234","28000","output","2830","真っ白な猫が、下の世界を眺めています。「私と一緒にくらす人は誰が良いかな？」「どの人と一緒なら、」"
"367640","outline","15","498174","23000","output","1168","高校生の武田茂は戦国シミュレーションゲームにハマっていた。
あまりにも好きすぎて徹夜することもしばしばあり、この日も茂は徹夜でゲームをし、そのまま眠ってしまった。
茂が目覚めるとそこは自宅ではなく、なぜか森の中。
何かのイタズラと思いつつ、山中を彷徨っていると人と出会う。
しかしその人の服装は異常だった。
古くてボロい着物を着ており、明らかに現代日本人ではない。
話してみると言葉は一応通じるが、やはり現代日本語と異なっている。
ここはどこかと尋ねてみると、なんと甲斐の国だという。
治めているのは武田信玄で、戦国時代の真っただ中に転生してしまったことに茂のは気づくのだった。

茂は武田信玄が大好きで、ゲームでも武田信玄を選ぶことが多かった。
そういった経緯から茂は武田信玄率いる武田家を盛り立てていこうと考える。
しかし問題はどうやって武田家にツテを作るかだ。
今の茂はルームウェアを着た、ただの怪しい人間。
幸い出会った村人は住んでいる地域が異なれば"
"5081515","outline","3","140628","27000","planning","2580","私の住んでいる場所は地面の上だった。暑い時も、寒い時も、ずっと一人だった。ごはんも置かれるだけで、一人で食べた。飲み水もずっと置きっぱなしで、時々水たまりも飲んだ。
ある時わた"
"1451340","outline","6","237577","34000","revision","1822","ある川の中に一匹の真っ黒い鯉が住んでいたが、周りの鯉たちはとてもきれいな柄をしておりそれをみた黒い鯉は悩んでいた。
ある日、大雨が何日も降り注ぎ、住んでいた川があふれかえり黒い鯉は流されてしまった。
目が覚めたら全く知らない場所に来ており戸惑っていたがあるドジョウが声を"
"1610899","outline","5","196559","18000","output","1714","　ある日、人間の家の中で、体の線が細くて柔らかい、真っ白な蜘蛛が生まれました。その白蜘蛛は、暑い冬も寒い冬も、台風の日も、大雪の日も、人間の家の中で快適に暮らしていました。
　ある日、人間の家の外から、黒蜘蛛が家の中に入ってきました。そして黒蜘蛛は白蜘蛛と出会いました。"
"2592945","outline","2","118541","31000","output","1182","コウタは今日も灼熱の道路工事の仕事に精を出していた。決して望んで就いた仕事ではない。学生の頃から勉強嫌いで就職先"
"5144214","outline","4","198455","35000","output","3193","太郎は、どこにでもいるような平凡なサラリーマンだった。
太郎は、いつも通り仕事を終え、いつものスーパーに寄った後、家に帰った。
家に帰った太郎は、玄関の前に、送り主不明の身に覚えのないに荷物が届いていることに気づいた。
宛先を確認すると、自分あてだったので、不思議に思いながらも、太郎は荷物を部屋の中に運んで、中身を空けてみることにした。
中身を空けると、そこにはロボットが入っていた"
"769122","outline","7","278662","31000","revision","3423","黒猫のミーは臆病な男の子。森の中で1人で過ごしていたけれど、そんな彼にもどうしても忘れられない出会いがありました。それが、子猫の頃に森にお花を摘みにやってきた女の子です。
その様子を木陰からじっと見守っていましたが、子猫の陰に気づいた女の子が優しく話しかけてくれました。その時に、子猫は「ミー」という名前をもらったのです。
女のことはそれきりでしたが、ミーは彼女の優しい笑顔をよく思い出していました。
やがて月日は流れ、ミーも立派な大人になります。仮も上手になり、"
"169251","outline","2","111301","15000","output","1410","チュウタは仲間のネズミ達を集めて演説を始めた。
「このままだと、人間やカラス達に命を奪われてしまう。もっと安心して暮らせる場所に移住しよう」
仲間のネズミ達からは"
"1034994","outline","6","288629","41000","output","2088","目を開けた瞬間、直哉は息を呑んだ。
頭上には、見たこともないほど青く澄んだ空。木々は高くそびえ、葉の間からこぼれる光は金色に輝いていた。
ここは、どこだ？
最後に覚えているのは、深夜まで残業して、帰宅途中に急な眠気に襲われたことだけ。

足音がした。振り返ると、そこには一人の少女が立っていた。
淡い銀色の髪に、湖のような瞳。背には、淡く光を放つ羽のようなものが揺れている。
「あなた……人間？」
少女の声は透き通っていたが、その瞳には警戒の色があった。

突然、矢が飛んできた。少女は瞬時に手をかざし、空中で矢は氷の結晶となって砕け散る。
「急いで！　精霊たちが狙われているの！」
そう告げると、彼女は駆け出した。直哉は訳も分からぬまま、その後を追った。
少女の名はリィナ。森に棲む精霊たちの守護者であり、人間の狩人たちから彼らを守っているという。
直哉は、彼女の真っ直ぐな信念に心を打たれ、共に旅をすることを決意する。

旅の道中、二人は獣人の村、地下に暮らすドワーフ、天空の浮島に住む翼人など、さまざまな種族と出会う。
しかしどの地にも、人間による精霊狩りの影が忍び寄っていた。
それぞれの種族には、戦わざるを得ない事情や深い悲しみがあった。
やがて二人は、精霊を狙う黒衣の男??「影喰い」と呼ばれる存在と対峙する。
彼は異世界の均衡を崩し、精霊の命を力に変えて世界を支配しようとしていた。
「直哉、お前は選べ。この世界を救うか、元の世界に戻るか」
影喰いの言葉は、直哉の胸を突き刺す。

戦いの果てに影喰いは倒れる。しかし、世界を救った後、精霊たちは彼に別れを告げる。
リィナは笑顔を浮かべたが、その瞳にはわずかな涙が光っていた。
「……あなたの世界にも、きっと守るべきものがあるでしょう？」
直哉は元の世界に戻ることを選んだ。
通勤電車の窓から見える景色は以前と変わらない。しかし、彼の心には異世界の森の風、仲間たちの笑い声、リィナの微笑みが残っていた。

その日から、彼は小さな優しさを積み重ねるようになった。道端の花を守り、困っている人に手を差し伸べ、日常の中で精霊のような存在を見つけ出す。
あの世界で学んだことは、今も確かに生きている。"
"4415810","outline","1","94132","43000","output","1205","今日も都会の喧騒にうんざりとした彼は足取りも重く帰途についていた。
彼は眠る前にいつもの空想にふけっていました"
"5041386","outline","8","283455","24000","output","1605","ここはネズミの国です。ネズミたちの仲間が平和にのびのび暮らしていました。
その国に、ネズミの少年チュウタがいました。チュウタは他のネズミより体が小さいことにコンプレックスを持っていましたが、友達に恵まれそれなりに楽しく暮らしていました。

しかしある時、ドラ猫のドーラが国にやってきて大暴れしました。
ネズミはドーラを恐れてしまい、誰も立ち向かいません。
ネズミたちを支配するようになりました。
"
"2100161","outline","3","122378","15000","output","2424","真っ白な猫が、下の世界を眺めています。「私と一緒にくらす人は誰が良いかな？」「どの人と一緒なら、その人の役に立てるだろう」"
"5924178","outline","7","255575","29000","revision","1508","太郎はお母さんに一人でスーパーに行ってりんごをに買ってきてと頼まれた。
それは、5歳の太郎の初めてのお使いだった。
人見知りで恥ずかしがり屋の太郎は一人でおつかいができるか不安だったが、大好きなお母さんのため、おつかいに行く事を決意する。
お母さんからお金を受け取り家を出た太郎、しかし、しばらく進むと初めてのおつかいの緊張のせいか、いつも行っているスーパーへの道がわからなくなってしまった。
周りは比較的人通りが多く、道を尋ねる事もできるが、人見知りの太郎は知らない人に声を掛ける事がなかなかできない。
しかし、このままでは大好きなお母さんに頼まれたお使いを達成する事ができない。
太郎は意を決して通りかかった大人に声お"
"6169624","outline","13","441501","36000","revision","1166","＜人はなぜつまらないと初めからわかっているスポーツに関心を示してしまうのか？＞

サッカーが嫌いだということは、実は賢いという人間であれば堅実な内容であると言えます。世の中はとにかく汚いビジネスに侵されており、鬱陶しさが否めないというのが実情です。
またこういった偏向傾向を生んだのは、金儲けに目がくらんだマスコミそのものであり、嫌いなものをとことん見たくない人間を破滅させることはみじんも理解していないと考えられます。
それから美的センスに欠ける内容は、自分自身で排除して欠航であり、稚拙なスポーツニュースは一切見聞きしないというのが賢い人が行うべき行動なのです。同時に世の中に振り回されることを防ぐには、自分自身で好きなものを優先させて自ら生きるということが大事になってきます。
人間らしく生きるには、人間自身が自らを証明しなければなりません。
これが本当の面白さなのです。"
"2592945","outline","3","146722","20000","planning","1215","コウタは今日も灼熱の道路工事の仕事に精を出していた。決して望んで就いた仕事ではない。学生の頃から勉強嫌いで就職先を選べなかったからだ。コウタには幼馴染の"
"1451340","outline","7","271018","29000","output","1952","ある川の中に一匹の真っ黒い鯉が住んでいたが、周りの鯉たちはとてもきれいな柄をしておりそれをみた黒い鯉は悩んでいた。
ある日、大雨が何日も降り注ぎ、住んでいた川があふれかえり黒い鯉は流されてしまった。
目が覚めたら全く知らない場所に来ており戸惑っていたがあるドジョウが声をかけてきた。とても楽しくおしゃべりしたり"
"769122","outline","8","307182","24000","planning","1191","黒猫のミーは元気な男の子。森の中で1人で過ごしていたけれど、そんな彼にもどうしても忘れられない出会いがありました。それが、子猫の頃に森にお花を摘みにやってきた女の子です。
その様子を木陰からじっと見守っていましたが、子猫の陰に気づいた女の子が優しく話しかけてくれました。その時に、子猫は「ミー」という名前をもらったのです。
女のことはそれきりでしたが、ミーは彼女の優しい笑顔をよく思い出していました。
やがて月日は流れ、ミーも立派な大人になります。狩りも上手になり、"
"4415810","outline","2","122700","24000","output","1459","今日も都会の喧騒にうんざりとした彼は足取りも重く帰途についていた。
彼は眠る前にいつもの空想にふけっていました。
ああ、都会の煩わしい喧騒から離れて田舎で農業をいとなみないと"
"367640","outline","16","541551","40000","output","1119","高校生の武田茂は戦国シミュレーションゲームにハマっていた。
あまりにも好きすぎて徹夜することもしばしばあり、この日も茂は徹夜でゲームをし、そのまま眠ってしまった。
茂が目覚めるとそこは自宅ではなく、なぜか森の中。
何かのイタズラと思いつつ、山中を彷徨っていると人と出会う。
しかしその人の服装は異常だった。
古くてボロい着物を着ており、明らかに現代日本人ではない。
話してみると言葉は一応通じるが、やはり現代日本語と異なっている。
ここはどこかと尋ねてみると、なんと甲斐の国だという。
治めているのは武田信玄で、戦国時代の真っただ中に転生してしまったことに茂のは気づくのだった。

茂は武田信玄が大好きで、ゲームでも武田信玄を選ぶことが多かった。
そういった経緯から茂は武田信玄率いる武田家を盛り立てていこうと考える。
しかし問題はどうやって武田家にツテを作るかだ。
今の茂はルームウェアを着た、ただの怪しい人間。
そこで茂は出会った村人にか"
"2100161","outline","4","151347","23000","output","2954","真っ白な猫が、下の世界を眺めています。「私と一緒にくらす人は誰が良いかな？」「どの人と一緒なら、その人の役に立てるだろう？」。そんなことを考えながら、"
"5081515","outline","4","190185","45000","planning","1560","私の住んでいる場所は地面の上だった。暑い時も、寒い時も、ずっと一人だった。ごはんも置かれるだけで、一人で食べた。飲み水もずっと置きっぱなしで、時々水たまりも飲んだ。
ある時私は全然知らないところに連れて行ってもらえた。なんだか大きな施設だった。私の飼い主は私を置いて帰ってしまった。私は"
"1610899","outline","6","243742","43000","planning","3114","　ある日、人間の家の中で、体の線が細くて柔らかい、真っ白な蜘蛛が生まれました。その白蜘蛛は、暑い冬も寒い冬も、台風の日も、大雪の日も、人間の家の中で快適に暮らしていました。
　ある日、人間の家の外から、黒蜘蛛が家の中に入ってきました。その黒蜘蛛は、体の線が太くて硬く、真っ黒な蜘蛛です。そして黒蜘蛛は白蜘蛛と出会いました。"
"5924178","outline","8","288407","30000","output","1835","太郎はお母さんに一人でスーパーに行ってりんごをに買ってきてと頼まれた。
それは、5歳の太郎の初めてのお使いだった。
人見知りで恥ずかしがり屋の太郎は一人でおつかいができるか不安だったが、大好きなお母さんのため、おつかいに行く事を決意する。
お母さんからお金を受け取り家を出た太郎、しかし、しばらく進むと初めてのおつかいの緊張のせいか、いつも行っているスーパーへの道がわからなくなってしまった。
周りは比較的人通りが多く、道を尋ねる事もできるが、人見知りの太郎は知らない人に声を掛ける事がなかなかできない。
しかし、このままでは大好きなお母さんに頼まれたお使いを達成する事ができない。
太郎は意を決して通りかかった大人に声をかけ、スーパーへの道を聞くことができた。
無事、スーパーにたどり着いた太郎。
目当てのりんごを探しはじめ"
"5144214","outline","5","244534","42000","output","1579","太郎は、どこにでもいるような平凡なサラリーマンだった。
太郎は、いつも通り仕事を終え、いつものスーパーに寄った後、家に帰った。
家に帰った太郎は、玄関の前に、送り主不明の身に覚えのないに荷物が届いていることに気づいた。
宛先を確認すると、自分あてだったので、不思議に思いながらも、太郎は荷物を部屋の中に運んで、中身を空けてみることにした。
中身を空けると、そこにはロボットが入っていた。
スイッチを押すと、ロボットが起動し、「私はAIロボットです。これからあなたの生活を手助けします。なんでもきいてください」"
"169251","outline","3","154050","40000","output","1271","チュウタは仲間のネズミ達を集めて演説を始めた。
「このままだと、人間やカラス達に命を奪われてしまう。もっと安心して暮らせる場所に移住しよう」
仲間のネズミ達のうち、数匹のネズミは命を落とす可能性のある旅への参加を拒否した。"
"6169624","outline","14","478076","34000","revision","1240","＜人はなぜつまらないと初めからわかっているスポーツに関心を示してしまうのか？＞

サッカーが嫌いだということは、実は賢いという人間であれば堅実な内容であると言えます。世の中はとにかく汚いビジネスに侵されており、鬱陶しさが否めないというのが実情です。
またこういった偏向傾向を生んだのは、金儲けに目がくらんだマスコミそのものであり、嫌いなものをとことん見たくない人間を破滅させることはみじんも理解していないと考えられます。
それから美的センスに欠ける内容は、自分自身で排除して欠航であり、稚拙なスポーツニュースは一切見聞きしないというのが賢い人が行うべき行動なのです。同時に世の中に振り回されることを防ぐには、自分自身で好きなものを優先させて自ら生きるということが大事になってきます。
人間らしく生きるには、人間自身が自らを証明しなければなりません。
これが本当の面白さなのです。"
"1034994","outline","7","333675","41000","output","1889","目を開けた瞬間、直哉は息を呑んだ。
頭上には、見たこともないほど青く澄んだ空。木々は高くそびえ、葉の間からこぼれる光は金色に輝いていた。
ここは、どこだ？
最後に覚えているのは、深夜まで残業して、帰宅途中に急な眠気に襲われたことだけ。

足音がした。振り返ると、そこには一人の少女が立っていた。
淡い銀色の髪に、湖のような瞳。背には、淡く光を放つ羽のようなものが揺れている。
「あなた……人間？」
少女の声は透き通っていたが、その瞳には警戒の色があった。

突然、矢が飛んできた。少女は瞬時に手をかざし、空中で矢は氷の結晶となって砕け散る。
「急いで！　精霊たちが狙われているの！」
そう告げると、彼女は駆け出した。直哉は訳も分からぬまま、その後を追った。
少女の名はリィナ。森に棲む精霊たちの守護者であり、人間の狩人たちから彼らを守っているという。
直哉は、彼女の真っ直ぐな信念に心を打たれ、共に旅をすることを決意する。

旅の道中、二人は獣人の村、地下に暮らすドワーフ、天空の浮島に住む翼人など、さまざまな種族と出会う。
しかしどの地にも、人間による精霊狩りの影が忍び寄っていた。
それぞれの種族には、戦わざるを得ない事情や深い悲しみがあった。
やがて二人は、精霊を狙う黒衣の男??「影喰い」と呼ばれる存在と対峙する。
彼は異世界の均衡を崩し、精霊の命を力に変えて世界を支配しようとしていた。
「直哉、お前は選べ。この世界を救うか、元の世界に戻るか」
影喰いの言葉は、直哉の胸を突き刺す。

戦いの果てに影喰いは倒れる。しかし、世界を救った後、精霊たちは彼に別れを告げる。
リィナは笑顔を浮かべたが、その瞳にはわずかな涙が光っていた。
「……あなたの世界にも、きっと守るべきものがあるでしょう？」
直哉は元の世界に戻ることを選んだ。
通勤電車の窓から見える景色は以前と変わらない。しかし、彼の心には異世界の森の風、仲間たちの笑い声、リィナの微笑みが残っていた。

その日から、彼は小さな優しさを積み重ねるようになった。道端の花を守り、困っている人に手を差し伸べ、日常の中で精霊のような存在を見つけ出す。
あの世界で学んだことは、今も確かに生きている。"
"2592945","outline","4","173035","21000","other","1142","コウタは今日も灼熱の道路工事の仕事に精を出していた。決して望んで就いた仕事ではない。学生の頃から勉強嫌いで就職先を選べなかったからだ。コウタには幼馴染の友達がいた。その名はシゲオ。"
"5041386","outline","9","325719","39000","output","1455","ここはネズミの国です。ネズミたちの仲間が平和にのびのび暮らしていました。
その国に、ネズミの少年チュウタがいました。チュウタは他のネズミより体が小さいことにコンプレックスを持っていましたが、友達に恵まれそれなりに楽しく暮らしていました。

しかしある時、ドラ猫のドーラが国にやってきて大暴れしました。
ネズミはドーラを恐れてしまい、誰も立ち向かいません。
やがてドーラはネズミたちを支配するようになりました。

ドーラの圧政にくｒ"
"1451340","outline","8","297348","23000","planning","947","ある川の中に一匹の真っ黒い鯉が住んでいたが、周りの鯉たちはとてもきれいな柄をしておりそれをみた黒い鯉は悩んでいた。
ある日、大雨が何日も降り注ぎ、住んでいた川があふれかえり黒い鯉は流されてしまった。
目が覚めたら全く知らない場所に来ており戸惑っていたがあるドジョウが声をかけてきた。とても楽しくおしゃべりしたり遊んだり、違う"
"367640","outline","17","567335","23000","output","1071","高校生の武田茂は戦国シミュレーションゲームにハマっていた。
あまりにも好きすぎて徹夜することもしばしばあり、この日も茂は徹夜でゲームをし、そのまま眠ってしまった。
茂が目覚めるとそこは自宅ではなく、なぜか森の中。
何かのイタズラと思いつつ、山中を彷徨っていると人と出会う。
しかしその人の服装は異常だった。
古くてボロい着物を着ており、明らかに現代日本人ではない。
話してみると言葉は一応通じるが、やはり現代日本語と異なっている。
ここはどこかと尋ねてみると、なんと甲斐の国だという。
治めているのは武田信玄で、戦国時代の真っただ中に転生してしまったことに茂のは気づくのだった。

茂は武田信玄が大好きで、ゲームでも武田信玄を選ぶことが多かった。
そういった経緯から茂は武田信玄率いる武田家を盛り立てていこうと考える。
しかし問題はどうやって武田家にツテを作るかだ。
今の茂はルームウェアを着た、ただの怪しい人間。
そこで茂は出会った村人に神隠しにあったと嘘の事情を話し、"
"769122","outline","9","342230","28000","output","1023","黒猫のミーは元気な男の子。森の中で1人で過ごしていたけれど、そんな彼にもどうしても忘れられない出会いがありました。それが、子猫の頃に森にお花を摘みにやってきた女の子です。
その様子を木陰からじっと見守っていましたが、子猫の陰に気づいた女の子が優しく話しかけてくれました。その時に、子猫は「ミー」という名前をもらったのです。
女のことはそれきりだったものの、ミーは彼女の優しい笑顔をよく思い出していました。
やがて月日は流れ、ミーも立派な大人になります。狩りも上手になり、こうどうはんいもひろがち"
"169251","outline","4","175978","19000","output","1310","チュウタは仲間のネズミ達を集めて演説を始めた。
「このままだと、人間やカラス達に命を奪われてしまう。もっと安心して暮らせる場所に移住しよう」
仲間のネズミ達のうち、数匹のネズミは命を落とす可能性のある旅への参加を拒否した。
チュウタは諦めずに何度も説得をく"
"1034994","outline","8","356462","20000","output","1688","目を開けた瞬間、直哉は息を呑んだ。
頭上には、見たこともないほど青く澄んだ空。木々は高くそびえ、葉の間からこぼれる光は金色に輝いていた。
ここは、どこだ？
最後に覚えているのは、深夜まで残業して、帰宅途中に急な眠気に襲われたことだけ。

足音がした。振り返ると、そこには一人の少女が立っていた。
淡い銀色の髪に、湖のような瞳。背には、淡く光を放つ羽のようなものが揺れている。
「あなた……人間？」
少女の声は透き通っていたが、その瞳には警戒の色があった。

突然、矢が飛んできた。少女は瞬時に手をかざし、空中で矢は氷の結晶となって砕け散る。
「急いで！　精霊たちが狙われているの！」
そう告げると、彼女は駆け出した。直哉は訳も分からぬまま、その後を追った。
少女の名はリィナ。森に棲む精霊たちの守護者であり、人間の狩人たちから彼らを守っているという。
直哉は、彼女の真っ直ぐな信念に心を打たれ、共に旅をすることを決意する。

旅の道中、二人は獣人の村、地下に暮らすドワーフ、天空の浮島に住む翼人など、さまざまな種族と出会う。
しかしどの地にも、人間による精霊狩りの影が忍び寄っていた。
それぞれの種族には、戦わざるを得ない事情や深い悲しみがあった。
やがて二人は、精霊を狙う黒衣の男??「影喰い」と呼ばれる存在と対峙する。
彼は異世界の均衡を崩し、精霊の命を力に変えて世界を支配しようとしていた。
「直哉、お前は選べ。この世界を救うか、元の世界に戻るか」
影喰いの言葉は、直哉の胸を突き刺す。

戦いの果てに影喰いは倒れる。しかし、世界を救った後、精霊たちは彼に別れを告げる。
リィナは笑顔を浮かべたが、その瞳にはわずかな涙が光っていた。
「……あなたの世界にも、きっと守るべきものがあるでしょう？」
直哉は元の世界に戻ることを選んだ。
通勤電車の窓から見える景色は以前と変わらない。しかし、彼の心には異世界の森の風、仲間たちの笑い声、リィナの微笑みが残っていた。

その日から、彼は小さな優しさを積み重ねるようになった。道端の花を守り、困っている人に手を差し伸べ、日常の中で精霊のような存在を見つけ出す。
あの世界で学んだことは、今も確かに生きている。"
"4415810","outline","3","163431","37000","output","1459","今日も都会の喧騒にうんざりとした彼は足取りも重く帰途についていた。
彼は眠る前にいつもの空想にふけっていました。
ああ、都会の煩わしい喧騒から離れて田舎で農業を営みたいと。
いつのまにかすいま"
"2592945","outline","5","201163","25000","output","1069","コウタは今日も灼熱の道路工事の仕事に精を出していた。決して望んで就いた仕事ではない。学生の頃から勉強嫌いで就職先を選べなかったからだ。コウタには幼馴染の友達がいた。その名はシゲオ。シゲオは小学校から誰よりも勉強が"
"5924178","outline","9","324030","33000","output","827","太郎はお母さんに一人でスーパーに行ってりんごをに買ってきてと頼まれた。
それは、5歳の太郎の初めてのお使いだった。
人見知りで恥ずかしがり屋の太郎は一人でおつかいができるか不安だったが、大好きなお母さんのため、おつかいに行く事を決意する。
お母さんからお金を受け取り家を出た太郎、しかし、しばらく進むと初めてのおつかいの緊張のせいか、いつも行っているスーパーへの道がわからなくなってしまった。
周りは比較的人通りが多く、道を尋ねる事もできるが、人見知りの太郎は知らない人に声を掛ける事がなかなかできない。
しかし、このままでは大好きなお母さんに頼まれたお使いを達成する事ができない。
太郎は意を決して通りかかった大人に声をかけ、スーパーへの道を聞くことができた。
無事、スーパーにたどり着いた太郎。
目当てのりんごを探し始めるが見つからない。
人見知りの太郎は忙しそうに働いているてｎ"
"5144214","outline","6","279902","30000","output","2172","太郎は、どこにでもいるような平凡なサラリーマンだった。
太郎は、いつも通り仕事を終え、いつものスーパーに寄った後、家に帰った。
家に帰った太郎は、玄関の前に、送り主不明の身に覚えのないに荷物が届いていることに気づいた。
宛先を確認すると、自分あてだったので、不思議に思いながらも、太郎は荷物を部屋の中に運んで、中身を空けてみることにした。
中身を空けると、そこにはロボットが入っていた。
スイッチを押すと、ロボットが起動し、「私はAIロボットです。これからあなたの生活を手助けします。どんなことでも相談してください。」と言った。
その後、太郎は、"
"1451340","outline","9","324922","23000","planning","1742","ある川の中に一匹の真っ黒い鯉が住んでいたが、周りの鯉たちはとてもきれいな柄をしておりそれをみた黒い鯉は悩んでいた。
ある日、大雨が何日も降り注ぎ、住んでいた川があふれかえり黒い鯉は流されてしまった。
目が覚めたら全く知らない場所に来ており戸惑っていたがあるドジョウが声をかけてきた。とても楽しくおしゃべりしたり遊んだり、違う生き物たちと触れ合う中で黒い鯉は"
"2100161","outline","5","196765","41000","output","2709","真っ白な猫が、下の世界を眺めています。「私と一緒にくらす人は誰が良いかな？」「どの人と一緒なら、その人の役に立てるだろう？」。そんなことを考えながら、眺めていると、ある男の人が目に留まりました。その人は、孤独で人間を"
"5041386","outline","10","358847","29000","output","1478","ここはネズミの国です。ネズミたちの仲間が平和にのびのび暮らしていました。
その国に、ネズミの少年チュウタがいました。チュウタは他のネズミより体が小さいことにコンプレックスを持っていましたが、友達に恵まれそれなりに楽しく暮らしていました。

しかしある時、ドラ猫のドーラが国にやってきて大暴れしました。
ネズミはドーラを恐れてしまい、誰も立ち向かいません。
やがてドーラはネズミたちを支配するようになりました。

ドーラの暴力に怯える日々。
ある日、チュウタは友達がドーラに襲われている現場に"
"1610899","outline","7","286688","39000","output","2891","　ある日、人間の家の中で、体の線が細くて柔らかい、真っ白な蜘蛛が生まれました。その白蜘蛛は、暑い冬も寒い冬も、台風の日も、大雪の日も、人間の家の中で快適に暮らしていました。
　ある日、人間の家の外から、黒蜘蛛が家の中に入ってきました。その黒蜘蛛は、体の線が太くて硬く、真っ黒な蜘蛛です。そして黒蜘蛛は白蜘蛛と出会いました。黒蜘蛛は、白蜘蛛の体の線の細さと柔らかさに見とれてしまいました。白蜘蛛もまた、黒蜘蛛"
"5081515","outline","5","235354","41000","output","2242","私の住んでいる場所は地面の上だった。暑い時も、寒い時も、ずっと一人だった。ごはんも置かれるだけで、一人で食べた。飲み水もずっと置きっぱなしで、時々水たまりも飲んだ。
ある時私は全然知らないところに連れて行ってもらえた。なんだか大きな施設だった。私の飼い主は私を置いて帰ってしまった。いつ迎えに来てくれるんだろうと待っていたら"
"4101728","outline","0","47430","41000","output","1627","キツネとタヌキの化かしあい
"
"769122","outline","10","367374","22000","output","959","黒猫のミーは元気な男の子。森の中で1人で過ごしていたけれど、そんな彼にもどうしても忘れられない出会いがありました。それが、子猫の頃に森にお花を摘みにやってきた女の子です。
その様子を木陰からじっと見守っていましたが、子猫の陰に気づいた女の子が優しく話しかけてくれました。その時に、子猫は「ミー」という名前をもらったのです。
女のことはそれきりだったものの、ミーは彼女の優しい笑顔をよく思い出していました。
やがて月日は流れ、ミーも立派な大人になります。狩りも上手になり、行動範囲も広がりました。そこでミーは、今度は自分から女の子に会いに行こうとおもいたった"
"367640","outline","18","602791","33000","output","1039","高校生の武田茂は戦国シミュレーションゲームにハマっていた。
あまりにも好きすぎて徹夜することもしばしばあり、この日も茂は徹夜でゲームをし、そのまま眠ってしまった。
茂が目覚めるとそこは自宅ではなく、なぜか森の中。
何かのイタズラと思いつつ、山中を彷徨っていると人と出会う。
しかしその人の服装は異常だった。
古くてボロい着物を着ており、明らかに現代日本人ではない。
話してみると言葉は一応通じるが、やはり現代日本語と異なっている。
ここはどこかと尋ねてみると、なんと甲斐の国だという。
治めているのは武田信玄で、戦国時代の真っただ中に転生してしまったことに茂のは気づくのだった。

茂は武田信玄が大好きで、ゲームでも武田信玄を選ぶことが多かった。
そういった経緯から茂は武田信玄率いる武田家を盛り立てていこうと考える。
しかし問題はどうやって武田家にツテを作るかだ。
今の茂はルームウェアを着た、ただの怪しい人間。
そこで茂は出会った村人に神隠しにあったと嘘の事情を話し、同情を引いて協力してもらおうと考える。
幸い村人はよい人だった為、茂に衣類を貸してくれたり、無"
"5302284","outline","0","40531","35000","output","1030","ネズミのチュウタが七つの島を巡る冒険の物語がはじまります。一つの目の"
"1451340","outline","10","347018","18000","output","915","ある川の中に一匹の真っ黒い鯉が住んでいたが、周りの鯉たちはとてもきれいな柄をしておりそれをみた黒い鯉は悩んでいた。
ある日、大雨が何日も降り注ぎ、住んでいた川があふれかえり黒い鯉は流されてしまった。
目が覚めたら全く知らない場所に来ており戸惑っていたがあるドジョウが声をかけてきた。とても楽しくおしゃべりしたり遊んだり、違う生き物たちと触れ合う中で黒い鯉は固くなっていた心がやわらｋ"
"5144214","outline","7","307534","23000","planning","2093","太郎は、どこにでもいるような平凡なサラリーマンだった。
太郎は、いつも通り仕事を終え、いつものスーパーに寄った後、家に帰った。
家に帰った太郎は、玄関の前に、送り主不明の身に覚えのないに荷物が届いていることに気づいた。
宛先を確認すると、自分あてだったので、不思議に思いながらも、太郎は荷物を部屋の中に運んで、中身を空けてみることにした。
中身を空けると、そこにはロボットが入っていた。
スイッチを押すと、ロボットが起動し、「私はAIロボットです。これからあなたの生活を手助けします。どんなことでも相談してください。」と言った。
それから、太郎は、そのロボットと一緒に生活した。"
"5924178","outline","10","353390","27000","output","1348","太郎はお母さんに一人でスーパーに行ってりんごをに買ってきてと頼まれた。
それは、5歳の太郎の初めてのお使いだった。
人見知りで恥ずかしがり屋の太郎は一人でおつかいができるか不安だったが、大好きなお母さんのため、おつかいに行く事を決意する。
お母さんからお金を受け取り家を出た太郎、しかし、しばらく進むと初めてのおつかいの緊張のせいか、いつも行っているスーパーへの道がわからなくなってしまった。
周りは比較的人通りが多く、道を尋ねる事もできるが、人見知りの太郎は知らない人に声を掛ける事がなかなかできない。
しかし、このままでは大好きなお母さんに頼まれたお使いを達成する事ができない。
太郎は意を決して通りかかった大人に声をかけ、スーパーへの道を聞くことができた。
無事、スーパーにたどり着いた太郎。
目当てのりんごを探し始めるが見つからない。
人見知りの太郎は忙しそうに働いている店員にりんごの場所を聞く事がなかなかできない。
し"
"1034994","outline","9","392924","34000","output","1217","目を開けた瞬間、直哉は息を呑んだ。
頭上には、見たこともないほど青く澄んだ空。木々は高くそびえ、葉の間からこぼれる光は金色に輝いていた。
ここは、どこだ？
最後に覚えているのは、深夜まで残業して、帰宅途中に急な眠気に襲われたことだけ。

足音がした。振り返ると、そこには一人の少女が立っていた。
淡い銀色の髪に、湖のような瞳。背には、淡く光を放つ羽のようなものが揺れている。
「あなた……人間？」
少女の声は透き通っていたが、その瞳には警戒の色があった。

突然、矢が飛んできた。少女は瞬時に手をかざし、空中で矢は氷の結晶となって砕け散る。
「急いで！　精霊たちが狙われているの！」
そう告げると、彼女は駆け出した。直哉は訳も分からぬまま、その後を追った。

少女の名はリィナ。森に棲む精霊たちの守護者であり、人間の狩人たちから彼らを守っているという。
直哉は、彼女の真っ直ぐな信念に心を打たれ、共に旅をすることを決意する。

旅の道中、二人は獣人の村、地下に暮らすドワーフ、天空の浮島に住む翼人など、さまざまな種族と出会う。
しかしどの地にも、人間による精霊狩りの影が忍び寄っていた。
それぞれの種族には、戦わざるを得ない事情や深い悲しみがあった。
やがて二人は、精霊を狙う黒衣の男??「影喰い」と呼ばれる存在と対峙する。
彼は異世界の均衡を崩し、精霊の命を力に変えて世界を支配しようとしていた。
「直哉、お前は選べ。この世界を救うか、元の世界に戻るか」
影喰いの言葉は、直哉の胸を突き刺す。

戦いの果てに影喰いは倒れる。しかし、世界を救った後、精霊たちは彼に別れを告げる。
リィナは笑顔を浮かべたが、その瞳にはわずかな涙が光っていた。
「……あなたの世界にも、きっと守るべきものがあるでしょう？」
直哉は元の世界に戻ることを選んだ。
通勤電車の窓から見える景色は以前と変わらない。しかし、彼の心には異世界の森の風、仲間たちの笑い声、リィナの微笑みが残っていた。

その日から、彼は小さな優しさを積み重ねるようになった。道端の花を守り、困っている人に手を差し伸べ、日常の中で精霊のような存在を見つけ出す。
あの世界で学んだことは、今も確かに生きている。"
"769122","outline","11","388558","18000","output","863","黒猫のミーは元気な男の子。森の中で1人で過ごしていたけれど、そんな彼にもどうしても忘れられない出会いがありました。それが、子猫の頃に森にお花を摘みにやってきた女の子です。
その様子を木陰からじっと見守っていましたが、子猫の陰に気づいた女の子が優しく話しかけてくれました。その時に、子猫は「ミー」という名前をもらったのです。
女のことはそれきりだったものの、ミーは彼女の優しい笑顔をよく思い出していました。
やがて月日は流れ、ミーも立派な大人になります。狩りも上手になり、行動範囲も広がりました。そこでミーは、今度は自分から女の子に会いに行こうと思い立ちました。
あの時に女の子は、自分が森のはずれのまちｎ"
"2592945","outline","6","238509","32000","planning","1173","コウタは今日も灼熱の道路工事の仕事に精を出していた。決して望んで就いた仕事ではない。学生の頃から勉強嫌いで就職先を選べなかったからだ。コウタには幼馴染の友達がいた。その名はシゲオ。シゲオは小学校から誰よりも勉強が得意で常に皆の注目を浴びていた。彼の今の仕事はプログラマーだ。"
"169251","outline","5","224407","45000","output","2355","チュウタは仲間のネズミ達を集めて演説を始めた。
「このままだと、人間やカラス達に命を奪われてしまう。もっと安心して暮らせる場所に移住しよう」
仲間のネズミ達のうち、数匹のネズミは命を落とす可能性のある旅への参加を拒否した。
チュウタは諦めずに何度も説得を繰り返して、"
"5081515","outline","6","269263","29000","planning","2634","私の住んでいる場所は地面の上だった。暑い時も、寒い時も、ずっと一人だった。ごはんも置かれるだけで、一人で食べた。飲み水もずっと置きっぱなしで、時々水たまりも飲んだ。
ある時私は全然知らないところに連れて行ってもらえた。なんだか大きな施設だった。私の飼い主は私を置いて帰ってしまった。いつ迎えに来てくれるんだろうと待っていたら、なんだか知らない人が私を連れて行ってくれた。
新しい"
"5041386","outline","11","396519","34000","revision","1816","ここはネズミの国です。ネズミたちの仲間が平和にのびのび暮らしていました。
その国に、ネズミの少年チュウタがいました。チュウタは他のネズミより体が小さいことにコンプレックスを持っていましたが、友達に恵まれそれなりに楽しく暮らしていました。

しかしある時、ドラ猫のドーラが国にやってきて大暴れしました。
ネズミはドーラを恐れてしまい、誰も立ち向かいません。
やがてドーラはネズミたちを支配するようになりました。

ドーラの暴力に怯える日々。
ある日、チュウタは友達がドーラに襲われている現場に出くわしました。
「助けて震えるチュウタ「ぼくなんかじゃどうしようもない」"
"4415810","outline","4","212317","39000","planning","4039","今日も都会の喧騒にうんざりとした彼は足取りも重く帰途についていた。
彼は眠る前にいつもの空想にふけっていました。
ああ、都会の煩わしい喧騒から離れて田舎で農業を営みたいと。
睡魔に負け、ふと目が覚めると、見たこともない場所にいた。
"
"4101728","outline","1","83501","30000","output","1604","キツネとタヌキの化かしあい
変化が苦手なタヌキがいました。
そなんなたぬｋ"
"2100161","outline","6","241726","41000","output","2558","真っ白な猫が、下の世界を眺めています。「私と一緒にくらす人は誰が良いかな？」「どの人と一緒なら、その人の役に立てるだろう？」。そんなことを考えながら、眺めていると、ある男の人が目に留まりました。その人は、孤独で人間をあまり好きでない感じがしました。猫は思いました。「この人と一緒にいたい」"
"1610899","outline","8","330854","40000","output","2510","　ある日、人間の家の中で、体の線が細くて柔らかい、真っ白な蜘蛛が生まれました。その白蜘蛛は、暑い冬も寒い冬も、台風の日も、大雪の日も、人間の家の中で快適に暮らしていました。
　ある日、人間の家の外から、黒蜘蛛が家の中に入ってきました。その黒蜘蛛は、体の線が太くて硬く、真っ黒な蜘蛛です。そして黒蜘蛛は白蜘蛛と出会いました。黒蜘蛛は、白蜘蛛の体の線の細さと柔らかさに見とれてしまいました。白蜘蛛もまた、黒蜘蛛の"
"5924178","outline","11","375678","20000","output","788","太郎はお母さんに一人でスーパーに行ってりんごをに買ってきてと頼まれた。
それは、5歳の太郎の初めてのお使いだった。
人見知りで恥ずかしがり屋の太郎は一人でおつかいができるか不安だったが、大好きなお母さんのため、おつかいに行く事を決意する。
お母さんからお金を受け取り家を出た太郎、しかし、しばらく進むと初めてのおつかいの緊張のせいか、いつも行っているスーパーへの道がわからなくなってしまった。
周りは比較的人通りが多く、道を尋ねる事もできるが、人見知りの太郎は知らない人に声を掛ける事がなかなかできない。
しかし、このままでは大好きなお母さんに頼まれたお使いを達成する事ができない。
太郎は意を決して通りかかった大人に声をかけ、スーパーへの道を聞くことができた。
無事、スーパーにたどり着いた太郎。
目当てのりんごを探し始めるが見つからない。
人見知りの太郎は忙しそうに働いている店員にりんごの場所を聞く事がなかなかできない。
しかし、お母さんのため、そう思うとゆうきがわいてｋ"
"5144214","outline","8","331046","20000","output","1371","太郎は、どこにでもいるような平凡なサラリーマンだった。
太郎は、いつも通り仕事を終え、いつものスーパーに寄った後、家に帰った。
家に帰った太郎は、玄関の前に、送り主不明の身に覚えのないに荷物が届いていることに気づいた。
宛先を確認すると、自分あてだったので、不思議に思いながらも、太郎は荷物を部屋の中に運んで、中身を空けてみることにした。
中身を空けると、そこにはロボットが入っていた。
スイッチを押すと、ロボットが起動し、「私はAIロボットです。これからあなたの生活を手助けします。どんなことでも相談してください。」と言った。
それから、太郎は、そのロボットと一緒に生活した。
ロボットは、とても頼りがいがあって、太郎はかなりたすかって"
"1034994","outline","10","415560","20000","output","1149","目を開けた瞬間、直哉は息を呑んだ。
頭上には、見たこともないほど青く澄んだ空。木々は高くそびえ、葉の間からこぼれる光は金色に輝いていた。
ここは、どこだ？
最後に覚えているのは、深夜まで残業して、帰宅途中に急な眠気に襲われたことだけ。

足音がした。振り返ると、そこには一人の少女が立っていた。
淡い銀色の髪に、湖のような瞳。背には、淡く光を放つ羽のようなものが揺れている。
「あなた……人間？」
少女の声は透き通っていたが、その瞳には警戒の色があった。

突然、矢が飛んできた。少女は瞬時に手をかざし、空中で矢は氷の結晶となって砕け散る。
「急いで！　精霊たちが狙われているの！」
そう告げると、彼女は駆け出した。直哉は訳も分からぬまま、その後を追った。

少女の名はリィナ。森に棲む精霊たちの守護者であり、人間の狩人たちから彼らを守っているという。
直哉は、彼女の真っ直ぐな信念に心を打たれ、共に旅をすることを決意する。

旅の道中、二人は獣人の村、地下に暮らすドワーフ、天空の浮島に住む翼人など、さまざまな種族と出会う。
しかしどの地にも、人間による精霊狩りの影が忍び寄っていた。
それぞれの種族には、戦わざるを得ない事情や深い悲しみがあった。
やがて二人は、精霊を狙う黒衣の男??「影喰い」と呼ばれる存在と対峙する。
彼は異世界の均衡を崩し、精霊の命を力に変えて世界を支配しようとしていた。
「直哉、お前は選べ。この世界を救うか、元の世界に戻るか」
影喰いの言葉は、直哉の胸を突き刺す。

戦いの果てに影喰いは倒れる。しかし、世界を救った後、精霊たちは彼に別れを告げる。
リィナは笑顔を浮かべたが、その瞳にはわずかな涙が光っていた。
「……あなたの世界にも、きっと守るべきものがあるでしょう？」
直哉は元の世界に戻ることを選んだ。
通勤電車の窓から見える景色は以前と変わらない。しかし、彼の心には異世界の森の風、仲間たちの笑い声、リィナの微笑みが残っていた。

その日から、彼は小さな優しさを積み重ねるようになった。道端の花を守り、困っている人に手を差し伸べ、日常の中で精霊のような存在を見つけ出す。
あの世界で学んだことは、今も確かに生きている。"
"1451340","outline","11","374969","24000","output","1107","ある川の中に一匹の真っ黒い鯉が住んでいたが、周りの鯉たちはとてもきれいな柄をしておりそれをみた黒い鯉は悩んでいた。
ある日、大雨が何日も降り注ぎ、住んでいた川があふれかえり黒い鯉は流されてしまった。
目が覚めたら全く知らない場所に来ており戸惑っていたがあるドジョウが声をかけてきた。とても楽しくおしゃべりしたり遊んだり、違う生き物たちと触れ合う中で黒い鯉は固くなっていた心がやわらかくなっていった。

そんな中、自分と似たようｎ"
"2592945","outline","7","261662","20000","planning","1206","コウタは今日も灼熱の道路工事の仕事に精を出していた。決して望んで就いた仕事ではない。学生の頃から勉強嫌いで就職先を選べなかったからだ。コウタには幼馴染の友達がいた。その名はシゲオ。シゲオは小学校から誰よりも勉強が得意で常に皆の注目を浴びていた。彼の今の仕事はやり手のプログラマーだ。"
"5302284","outline","1","81537","36000","planning","1501","ネズミのチュウタが七つの島を巡る冒険の物語がはじまります。一つの目の島で鹿のティコと出会い、冒険の話をして一緒に"
"367640","outline","19","650647","45000","output","1503","高校生の武田茂は戦国シミュレーションゲームにハマっていた。
あまりにも好きすぎて徹夜することもしばしばあり、この日も茂は徹夜でゲームをし、そのまま眠ってしまった。
茂が目覚めるとそこは自宅ではなく、なぜか森の中。
何かのイタズラと思いつつ、山中を彷徨っていると人と出会う。
しかしその人の服装は異常だった。
古くてボロい着物を着ており、明らかに現代日本人ではない。
話してみると言葉は一応通じるが、やはり現代日本語と異なっている。
ここはどこかと尋ねてみると、なんと甲斐の国だという。
治めているのは武田信玄で、戦国時代の真っただ中に転生してしまったことに茂のは気づくのだった。

茂は武田信玄が大好きで、ゲームでも武田信玄を選ぶことが多かった。
そういった経緯から茂は武田信玄率いる武田家を盛り立てていこうと考える。
しかし問題はどうやって武田家にツテを作るかだ。
今の茂はルームウェアを着た、ただの怪しい人間。
そこで茂は出会った村人に神隠しにあったと嘘の事情を話し、同情を引いて協力してもらおうと考える。
幸い村人はよい人だった為、茂に衣類を貸してくれたり、村に住めるよう手配をしてくれた。
茂はさらなる信用を得る為、村長の目につくような活躍をして信頼"
"5041386","outline","12","422567","23000","output","1223","ここはネズミの国です。ネズミたちの仲間が平和にのびのび暮らしていました。
その国に、ネズミの少年チュウタがいました。チュウタは他のネズミより体が小さいことにコンプレックスを持っていましたが、友達に恵まれそれなりに楽しく暮らしていました。

しかしある時、ドラ猫のドーラが国にやってきて大暴れしました。
ネズミはドーラを恐れてしまい、誰も立ち向かいません。
やがてドーラはネズミたちを支配するようになりました。

ドーラの暴力に怯える日々。
ある日、チュウタは友達がドーラに襲われている現場に出くわしました。
「助けて」と訴える友達と震えるチュウタ「ぼくなんかじゃどうしようもない」……それでもチュウタはゆ"
"169251","outline","6","261369","34000","output","1192","チュウタは仲間のネズミ達を集めて演説を始めた。
「このままだと、人間やカラス達に命を奪われてしまう。もっと安心して暮らせる場所に移住しよう」
仲間のネズミ達のうち、数匹のネズミは命を落とす可能性のある旅への参加を拒否した。
チュウタが諦めずに何度も説得を繰り返していると、チュウタの熱意に負けて"
"1034994","outline","11","439202","21000","output","1093","目を開けた瞬間、直哉は息を呑んだ。
頭上には、見たこともないほど青く澄んだ空。木々は高くそびえ、葉の間からこぼれる光は金色に輝いていた。
ここは、どこだ？
最後に覚えているのは、深夜まで残業して、帰宅途中に急な眠気に襲われたことだけ。

足音がした。振り返ると、そこには一人の少女が立っていた。
淡い銀色の髪に、湖のような瞳。背には、淡く光を放つ羽のようなものが揺れている。
「あなた……人間？」
少女の声は透き通っていたが、その瞳には警戒の色があった。

突然、矢が飛んできた。少女は瞬時に手をかざし、空中で矢は氷の結晶となって砕け散る。
「急いで！　精霊たちが狙われているの！」
そう告げると、彼女は駆け出した。直哉は訳も分からぬまま、その後を追った。

少女の名はリィナ。森に棲む精霊たちの守護者であり、人間の狩人たちから彼らを守っているという。
直哉は、彼女の真っ直ぐな信念に心を打たれ、共に旅をすることを決意する。

旅の道中、二人は獣人の村、地下に暮らすドワーフ、天空の浮島に住む翼人など、さまざまな種族と出会う。
しかしどの地にも、人間による精霊狩りの影が忍び寄っていた。
それぞれの種族には、戦わざるを得ない事情や深い悲しみがあった。

やがて二人は、精霊を狙う黒衣の男??「影喰い」と呼ばれる存在と対峙する。
彼は異世界の均衡を崩し、精霊の命を力に変えて世界を支配しようとしていた。
「直哉、お前は選べ。この世界を救うか、元の世界に戻るか」
影喰いの言葉は、直哉の胸を突き刺す。

戦いの果てに影喰いは倒れる。しかし、世界を救った後、精霊たちは彼に別れを告げる。
リィナは笑顔を浮かべたが、その瞳にはわずかな涙が光っていた。
「……あなたの世界にも、きっと守るべきものがあるでしょう？」
直哉は元の世界に戻ることを選んだ。
通勤電車の窓から見える景色は以前と変わらない。しかし、彼の心には異世界の森の風、仲間たちの笑い声、リィナの微笑みが残っていた。

その日から、彼は小さな優しさを積み重ねるようになった。道端の花を守り、困っている人に手を差し伸べ、日常の中で精霊のような存在を見つけ出す。
あの世界で学んだことは、今も確かに生きている。"
"115345","outline","0","34855","29000","planning","1224","太郎は新人のプロレスラーとして"
"1610899","outline","9","359679","23000","revision","4275","　ある日、人間の家の中で、体の線が細くて柔らかい、真っ白な蜘蛛が生まれました。その白蜘蛛は、暑い冬も寒い冬も、台風の日も、大雪の日も、人間の家の中で快適に暮らしていました。
　ある日、人間の家の外から、黒蜘蛛が家の中に入ってきました。その黒蜘蛛は、体の線が太くて硬く、真っ黒な蜘蛛です。そして黒蜘蛛は白蜘蛛と出会いました。黒蜘蛛は、白蜘蛛の体の線の細さと柔らかさに見とれてしまいました。白蜘蛛もまた、黒蜘蛛の体の線の太さと固さに見とれてしまいました。二匹の蜘蛛がｈ"
"769122","outline","12","432710","41000","output","967","黒猫のミーは元気な男の子。森の中で1人で過ごしていたけれど、そんな彼にもどうしても忘れられない出会いがありました。それが、子猫の頃に森にお花を摘みにやってきた女の子です。
その様子を木陰からじっと見守っていましたが、子猫の陰に気づいた女の子が優しく話しかけてくれました。その時に、子猫は「ミー」という名前をもらったのです。
女のことはそれきりだったものの、ミーは彼女の優しい笑顔をよく思い出していました。
やがて月日は流れ、ミーも立派な大人になります。狩りも上手になり、行動範囲も広がりました。そこでミーは、今度は自分から女の子に会いに行こうと思い立ちました。
あの時に女の子は、自分が森のはずれにある街に住んでいることを教えてくれたので、それほど距離は離れていないはず。自分の足でもきっと行けるはずです。
どうちゅうにはさまざまなこんなんがあ"
"2100161","outline","7","275055","27000","output","3138","真っ白な猫が、下の世界を眺めています。「私と一緒にくらす人は誰が良いかな？」「どの人と一緒なら、その人の役に立てるだろう？」。そんなことを考えながら、眺めていると、ある男の人が目に留まりました。その人は、孤独で人間をあまり好きでない感じがしました。猫は思いました。「この人と一緒にいたい！」　そして猫は
"
"4415810","outline","5","249977","33000","output","2327","今日も都会の喧騒にうんざりとした彼は足取りも重く帰途についていた。
彼は眠る前にいつもの空想にふけっていました。
ああ、都会の煩わしい喧騒から離れて田舎で農業を営みたいと。
睡魔に負け、ふと目が覚めると、見たこともない場所にいた。
広大な自然が広がり、小さな集落が"
"5144214","outline","9","365126","30000","output","1612","太郎は、どこにでもいるような平凡なサラリーマンだった。
太郎は、いつも通り仕事を終え、いつものスーパーに寄った後、家に帰った。
家に帰った太郎は、玄関の前に、送り主不明の身に覚えのないに荷物が届いていることに気づいた。
宛先を確認すると、自分あてだったので、不思議に思いながらも、太郎は荷物を部屋の中に運んで、中身を空けてみることにした。
中身を空けると、そこにはロボットが入っていた。
スイッチを押すと、ロボットが起動し、「私はAIロボットです。これからあなたの生活を手助けします。どんなことでも相談してください。」と言った。
それから、太郎は、そのロボットと一緒に生活した。
ロボットは、とても頼りがいがあって、太郎はかなり助けられていた。
おか"
"5081515","outline","7","314210","41000","output","1573","私の住んでいる場所は地面の上だった。暑い時も、寒い時も、ずっと一人だった。ごはんも置かれるだけで、一人で食べた。飲み水もずっと置きっぱなしで、時々水たまりも飲んだ。
ある時私は全然知らないところに連れて行ってもらえた。なんだか大きな施設だった。私の飼い主は私を置いて帰ってしまった。いつ迎えに来てくれるんだろうと待っていたら、なんだか知らない人が私を連れて行ってくれた。
新しいおうちは屋根があった。いつも誰かが一緒にいてくれる。しらないものがたくさんあって"
"5302284","outline","2","111699","27000","output","888","ネズミのチュウタが七つの島を巡る冒険の物語がはじまります。一つの目の島で鹿のティコと出会い一緒に冒険に出るようになりました。２つ"
"1034994","outline","12","456848","15000","output","1325","目を開けた瞬間、直哉は息を呑んだ。
頭上には、見たこともないほど青く澄んだ空。木々は高くそびえ、葉の間からこぼれる光は金色に輝いていた。
ここは、どこだ？
最後に覚えているのは、深夜まで残業して、帰宅途中に急な眠気に襲われたことだけ。

足音がした。振り返ると、そこには一人の少女が立っていた。
淡い銀色の髪に、湖のような瞳。背には、淡く光を放つ羽のようなものが揺れている。
「あなた……人間？」
少女の声は透き通っていたが、その瞳には警戒の色があった。

突然、矢が飛んできた。少女は瞬時に手をかざし、空中で矢は氷の結晶となって砕け散る。
「急いで！　精霊たちが狙われているの！」
そう告げると、彼女は駆け出した。直哉は訳も分からぬまま、その後を追った。

少女の名はリィナ。森に棲む精霊たちの守護者であり、人間の狩人たちから彼らを守っているという。
直哉は、彼女の真っ直ぐな信念に心を打たれ、共に旅をすることを決意する。

旅の道中、二人は獣人の村、地下に暮らすドワーフ、天空の浮島に住む翼人など、さまざまな種族と出会う。
しかしどの地にも、人間による精霊狩りの影が忍び寄っていた。
それぞれの種族には、戦わざるを得ない事情や深い悲しみがあった。

やがて二人は、精霊を狙う黒衣の男??「影喰い」と呼ばれる存在と対峙する。
彼は異世界の均衡を崩し、精霊の命を力に変えて世界を支配しようとしていた。
「直哉、お前は選べ。この世界を救うか、元の世界に戻るか」
影喰いの言葉は、直哉の胸を突き刺す。

戦いの果てに影喰いは倒れる。しかし、世界を救った後、精霊たちは彼に別れを告げる。
リィナは笑顔を浮かべたが、その瞳にはわずかな涙が光っていた。
「……あなたの世界にも、きっと守るべきものがあるでしょう？」

直哉は元の世界に戻ることを選んだ。
通勤電車の窓から見える景色は以前と変わらない。しかし、彼の心には異世界の森の風、仲間たちの笑い声、リィナの微笑みが残っていた。

その日から、彼は小さな優しさを積み重ねるようになった。道端の花を守り、困っている人に手を差し伸べ、日常の中で精霊のような存在を見つけ出す。
あの世界で学んだことは、今も確かに生きている。"
"1451340","outline","12","415684","37000","output","1261","ある川の中に一匹の真っ黒い鯉が住んでいたが、周りの鯉たちはとてもきれいな柄をしておりそれをみた黒い鯉は悩んでいた。
ある日、大雨が何日も降り注ぎ、住んでいた川があふれかえり黒い鯉は流されてしまった。
目が覚めたら全く知らない場所に来ており戸惑っていたがあるドジョウが声をかけてきた。とても楽しくおしゃべりしたり遊んだり、違う生き物たちと触れ合う中で黒い鯉は固くなっていた心がやわらかくなっていった。

そんな中、自分と似たようなメスと恋に落ちその場所で幸せにすえなが"
"5041386","outline","13","449943","23000","other","1345","ここはネズミの国です。ネズミたちの仲間が平和にのびのび暮らしていました。
その国に、ネズミの少年チュウタがいました。チュウタは他のネズミより体が小さいことにコンプレックスを持っていましたが、友達に恵まれそれなりに楽しく暮らしていました。

しかしある時、ドラ猫のドーラが国にやってきて大暴れしました。
ネズミはドーラを恐れてしまい、誰も立ち向かいません。
やがてドーラはネズミたちを支配するようになりました。

ドーラの暴力に怯える日々。
ある日、チュウタは友達がドーラに襲われている現場に出くわしました。
「助けて」と訴える友達と震えるチュウタ「ぼくなんかじゃどうしようもない」……それでもチュウタは勇気を振り絞り、ドーラに立ち向かいます。

"
"5924178","outline","12","421622","41000","planning","1293","太郎はお母さんに一人でスーパーに行ってりんごをに買ってきてと頼まれた。
それは、5歳の太郎の初めてのお使いだった。
人見知りで恥ずかしがり屋の太郎は一人でおつかいができるか不安だったが、大好きなお母さんのため、おつかいに行く事を決意する。
お母さんからお金を受け取り家を出た太郎、しかし、しばらく進むと初めてのおつかいの緊張のせいか、いつも行っているスーパーへの道がわからなくなってしまった。
周りは比較的人通りが多く、道を尋ねる事もできるが、人見知りの太郎は知らない人に声を掛ける事がなかなかできない。
しかし、このままでは大好きなお母さんに頼まれたお使いを達成する事ができない。
太郎は意を決して通りかかった大人に声をかけ、スーパーへの道を聞くことができた。
無事、スーパーにたどり着いた太郎。
目当てのりんごを探し始めるが見つからない。
人見知りの太郎は忙しそうに働いている店員にりんごの場所を聞く事がなかなかできない。
しかし、お母さんのため、そう思うと勇気が湧いてきた太郎は店員にりんごの場所を聞く事ができた。
そして、太郎はりんごをレジに持っていき精算を済ませ"
"4101728","outline","2","135492","44000","planning","1661","キツネとタヌキの化かしあい
変化が苦手なタヌキがいました。
そなんなタヌキをいつも小馬鹿にしていたキツネがある日、どっちが"
"81949","outline","0","39969","29000","output","6577","進学校に通う悟る"
"769122","outline","13","457262","21000","revision","975","黒猫のミーは元気な男の子。森の中で1人で過ごしていたけれど、そんな彼にもどうしても忘れられない出会いがありました。それが、子猫の頃に森にお花を摘みにやってきた女の子です。
その様子を木陰からじっと見守っていましたが、子猫の陰に気づいた女の子が優しく話しかけてくれました。その時に、子猫は「ミー」という名前をもらったのです。
女のことはそれきりだったものの、ミーは彼女の優しい笑顔をよく思い出していました。
やがて月日は流れ、ミーも立派な大人になります。狩りも上手になり、行動範囲も広がりました。そこでミーは、今度は自分から女の子に会いに行こうと思い立ちました。
あの時に女の子は、自分が森のはずれにある街に住んでいることを教えてくれたので、それほど距離は離れていないはず。自分の足でもきっと行けるはずです。
道中にはさまざまな困難がありましたが、ミーをよく知るうさ"
"2592945","outline","8","306159","39000","planning","1636","コウタは今日も灼熱の道路工事の仕事に精を出していた。決して望んで就いた仕事ではない。学生の頃から勉強嫌いで就職先を選べなかったからだ。コウタには幼馴染の友達がいた。その名はシゲオ。シゲオは小学校から誰よりも勉強が得意で常に皆の注目を浴びていた。彼の今の仕事はやり手のプログラマーだ。仕事が休みのある日、コウタはシゲオから久しぶりに会おうと声をかけられ、仕事場に出向いた。するとそこには"
"367640","outline","20","690886","37000","output","1224","高校生の武田茂は戦国シミュレーションゲームにハマっていた。
あまりにも好きすぎて徹夜することもしばしばあり、この日も茂は徹夜でゲームをし、そのまま眠ってしまった。
茂が目覚めるとそこは自宅ではなく、なぜか森の中。
何かのイタズラと思いつつ、山中を彷徨っていると人と出会う。
しかしその人の服装は異常だった。
古くてボロい着物を着ており、明らかに現代日本人ではない。
話してみると言葉は一応通じるが、やはり現代日本語と異なっている。
ここはどこかと尋ねてみると、なんと甲斐の国だという。
治めているのは武田信玄で、戦国時代の真っただ中に転生してしまったことに茂のは気づくのだった。

茂は武田信玄が大好きで、ゲームでも武田信玄を選ぶことが多かった。
そういった経緯から茂は武田信玄率いる武田家を盛り立てていこうと考える。
しかし問題はどうやって武田家にツテを作るかだ。
今の茂はルームウェアを着た、ただの怪しい人間。
そこで茂は出会った村人に神隠しにあったと嘘の事情を話し、同情を引いて協力してもらおうと考える。
幸い村人はよい人だった為、茂に衣類を貸してくれたり、村に住めるよう手配をしてくれた。
茂はさらなる信用を得る為、村長の目につくような活躍をして信頼を得ようとする。

まず茂が考えたのは井戸だ。
現代日本だと蛇口をひねれば水道水が出てくるが、この時代は井戸や川から水を汲んでくるしかない。"
"5144214","outline","10","388166","19000","output","2356","太郎は、どこにでもいるような平凡なサラリーマンだった。
太郎は、いつも通り仕事を終え、いつものスーパーに寄った後、家に帰った。
家に帰った太郎は、玄関の前に、送り主不明の身に覚えのないに荷物が届いていることに気づいた。
宛先を確認すると、自分あてだったので、不思議に思いながらも、太郎は荷物を部屋の中に運んで、中身を空けてみることにした。
中身を空けると、そこにはロボットが入っていた。
スイッチを押すと、ロボットが起動し、「私はAIロボットです。これからあなたの生活を手助けします。どんなことでも相談してください。」と言った。
それから、太郎は、そのロボットと一緒に生活した。
ロボットは、とても頼りがいがあって、太郎はかなり助けられていた。
おかげで太郎は、しごとでもおおｋ"
"1451340","outline","13","435952","17000","planning","1236","ある川の中に一匹の真っ黒い鯉が住んでいたが、周りの鯉たちはとてもきれいな柄をしておりそれをみた黒い鯉は悩んでいた。
ある日、大雨が何日も降り注ぎ、住んでいた川があふれかえり黒い鯉は流されてしまった。
目が覚めたら全く知らない場所に来ており戸惑っていたがあるドジョウが声をかけてきた。とても楽しくおしゃべりしたり遊んだり、違う生き物たちと触れ合う中で黒い鯉は固くなっていた心がやわらかくなっていった。

そんな中、自分と似たようなメスと恋に落ちその場所で幸せにずっと暮らし"
"169251","outline","7","307670","43000","output","1434","チュウタは仲間のネズミ達を集めて演説を始めた。
「このままだと、人間やカラス達に命を奪われてしまう。もっと安心して暮らせる場所に移住しよう」
仲間のネズミ達のうち、長老格の数匹のネズミは命を落とす可能性のある旅への参加を拒否した。
チュウタが諦めずに何度も説得を繰り返していると、チュウタの熱意に負けて長老達は旅への参加を了承した。
仲間たち"
"5041386","outline","14","475799","23000","output","1270","ここはネズミの国です。ネズミたちの仲間が平和にのびのび暮らしていました。
その国に、ネズミの少年チュウタがいました。チュウタは他のネズミより体が小さいことにコンプレックスを持っていましたが、友達に恵まれそれなりに楽しく暮らしていました。

しかしある時、ドラ猫のドーラが国にやってきて大暴れしました。
ネズミはドーラを恐れてしまい、誰も立ち向かいません。
やがてドーラはネズミたちを支配するようになりました。

ドーラの暴力に怯える日々。
ある日、チュウタは友達がドーラに襲われている現場に出くわしました。
「助けて」と訴える友達と震えるチュウタ「ぼくなんかじゃどうしようもない」……それでもチュウタは勇気を振り絞り、ドーラに立ち向かいます。

しかしチュウタの力ではや"
"1610899","outline","10","402727","39000","output","2966","　ある日、人間の家の中で、体の線が細くて柔らかい、真っ白な蜘蛛が生まれました。その白蜘蛛は、暑い冬も寒い冬も、台風の日も、大雪の日も、人間の家の中で快適に暮らしていました。
　ある日、人間の家の外から、黒蜘蛛が家の中に入ってきました。その黒蜘蛛は、体の線が太くて硬く、真っ黒な蜘蛛です。そして黒蜘蛛は白蜘蛛と出会いました。黒蜘蛛は、白蜘蛛の体の線の細さと柔らかさに見とれてしまいました。白蜘蛛もまた、黒蜘蛛の体の線の太さと固さに見とれてしまいました。二匹の蜘蛛は、互いに惹かれ合い、すぐに意気投合して仲良く"
"5302284","outline","3","140528","26000","planning","787","ネズミのチュウタが七つの島を巡る冒険の物語がはじまります。一つの目の島で鹿のティコと出会い一緒に冒険に出るようになりました。２つ目の島では、"
"1541203","outline","0","46203","40000","planning","1566","きつねのコン太は、父と母と3匹で暮らしていた。
コン太"
"5924178","outline","13","449726","22000","output","1325","太郎はお母さんに一人でスーパーに行ってりんごをに買ってきてと頼まれた。
それは、5歳の太郎の初めてのお使いだった。
人見知りで恥ずかしがり屋の太郎は一人でおつかいができるか不安だったが、大好きなお母さんのため、おつかいに行く事を決意する。
お母さんからお金を受け取り家を出た太郎、しかし、しばらく進むと初めてのおつかいの緊張のせいか、いつも行っているスーパーへの道がわからなくなってしまった。
周りは比較的人通りが多く、道を尋ねる事もできるが、人見知りの太郎は知らない人に声を掛ける事がなかなかできない。
しかし、このままでは大好きなお母さんに頼まれたお使いを達成する事ができない。
太郎は意を決して通りかかった大人に声をかけ、スーパーへの道を聞くことができた。
無事、スーパーにたどり着いた太郎。
目当てのりんごを探し始めるが見つからない。
人見知りの太郎は忙しそうに働いている店員にりんごの場所を聞く事がなかなかできない。
しかし、お母さんのため、そう思うと勇気が湧いてきた太郎は店員にりんごの場所を聞く事ができた。
そして、太郎はりんごをレジに持っていき精算を済ませた。
無事にりんごを手に入れて帰路"
"115345","outline","1","84191","44000","output","1305","太郎は新人のプロレスラー。まだまだ弱くて、一人で試合に勝利したことはない。"
"2100161","outline","8","320545","37000","revision","6074","　真っ白な猫が、下の世界を眺めています。「私と一緒にくらす人は誰が良いかな？」「どの人と一緒なら、その人の役に立てるだろう？」。そんなことを考えながら、眺めていると、ある男の人が目に留まりました。その人は、孤独で人間をあまり好きでない感じがしました。猫は思いました。「この人と一緒にいたい！」　そして猫は意を決して、この世界に飛び込みました。
　それは４
"
"1034994","outline","13","493224","34000","output","1235","目を開けた瞬間、直哉は息を呑んだ。
頭上には、見たこともないほど青く澄んだ空。木々は高くそびえ、葉の間からこぼれる光は金色に輝いていた。
ここは、どこだ？
最後に覚えているのは、深夜まで残業して、帰宅途中に急な眠気に襲われたことだけ。

足音がした。振り返ると、そこには一人の少女が立っていた。
淡い銀色の髪に、湖のような瞳。背には、淡く光を放つ羽のようなものが揺れている。
「あなた……人間？」
少女の声は透き通っていたが、その瞳には警戒の色があった。

突然、矢が飛んできた。少女は瞬時に手をかざし、空中で矢は氷の結晶となって砕け散る。
「急いで！　精霊たちが狙われているの！」
そう告げると、彼女は駆け出した。直哉は訳も分からぬまま、その後を追った。

少女の名はリィナ。森に棲む精霊たちの守護者であり、人間の狩人たちから彼らを守っているという。
直哉は、彼女の真っ直ぐな信念に心を打たれ、共に旅をすることを決意する。

旅の道中、二人は獣人の村、地下に暮らすドワーフ、天空の浮島に住む翼人など、さまざまな種族と出会う。
しかしどの地にも、人間による精霊狩りの影が忍び寄っていた。
それぞれの種族には、戦わざるを得ない事情や深い悲しみがあった。

やがて二人は、精霊を狙う黒衣の男??「影喰い」と呼ばれる存在と対峙する。
彼は異世界の均衡を崩し、精霊の命を力に変えて世界を支配しようとしていた。
「直哉、お前は選べ。この世界を救うか、元の世界に戻るか」
影喰いの言葉は、直哉の胸を突き刺す。

戦いの果てに影喰いは倒れる。しかし、世界を救った後、精霊たちは彼に別れを告げる。
リィナは笑顔を浮かべたが、その瞳にはわずかな涙が光っていた。
「……あなたの世界にも、きっと守るべきものがあるでしょう？」

直哉は元の世界に戻ることを選んだ。
通勤電車の窓から見える景色は以前と変わらない。しかし、彼の心には異世界の森の風、仲間たちの笑い声、リィナの微笑みが残っていた。

その日から、彼は小さな優しさを積み重ねるようになった。道端の花を守り、困っている人に手を差し伸べ、日常の中で精霊のような存在を見つけ出す。
あの世界で学んだことは、今も確かに生きている。"
"4415810","outline","6","297485","44000","output","1597","今日も都会の喧騒にうんざりとした彼は足取りも重く帰途についていた。
彼は眠る前にいつもの空想にふけっていました。
ああ、都会の煩わしい喧騒から離れて田舎で農業を営みたいと。
睡魔に負け、ふと目が覚めると、見たこともない場所にいた。
広大な自然が広がり、小さな集落が見えた。
なぜかもう"
"769122","outline","14","484374","23000","planning","928","黒猫のミーは元気な男の子。森の中で1人で過ごしていたけれど、そんな彼にもどうしても忘れられない出会いがありました。それが、子猫の頃に森にお花を摘みにやってきた女の子です。
その様子を木陰からじっと見守っていましたが、子猫の陰に気づいた女の子が優しく話しかけてくれました。その時に、子猫は「ミー」という名前をもらったのです。
女のことはそれきりだったものの、ミーは彼女の優しい笑顔をよく思い出していました。
やがて月日は流れ、ミーも立派な大人になります。狩りも上手になり、行動範囲も広がりました。そこでミーは、今度は自分から女の子に会いに行こうと思い立ちました。
あの時に女の子は、自分が森のはずれにある街に住んでいることを教えてくれたので、それほど距離は離れていないはず。自分の足でもきっと行けるはずです。
道中にはさまざまな困難がありましたが、ミーをよく知るうさぎやリス、鹿やキツネなどが"
"5081515","outline","8","359490","41000","planning","2143","私の住んでいる場所は地面の上だった。暑い時も、寒い時も、ずっと一人だった。ごはんも置かれるだけで、一人で食べた。飲み水もずっと置きっぱなしで、時々水たまりも飲んだ。
ある時私は全然知らないところに連れて行ってもらえた。なんだか大きな施設だった。私の飼い主は私を置いて帰ってしまった。いつ迎えに来てくれるんだろうと待っていたら、なんだか知らない人が私を連れて行ってくれた。
新しいおうちは屋根があった。いつも誰かが一緒にいてくれる。知らないものがたくさんあって、なんだかすごく楽しかった。お水もいつも冷たくておいしかった。"
"4101728","outline","3","167756","28000","output","1518","キツネとタヌキの化かしあい
変化が苦手なタヌキがいました。
そなんなタヌキをいつも小馬鹿にしていたキツネがある日、どっちが多くの人間たちをおどろかせられｒ"
"81949","outline","1","71857","29000","output","1408","進学校に通っている悟は、最近なぜ勉強しているのか、"
"2592945","outline","9","341812","25000","other","987","コウタは今日も灼熱の道路工事の仕事に精を出していた。決して望んで就いた仕事ではない。学生の頃から勉強嫌いで就職先を選べなかったからだ。コウタには幼馴染の友達がいた。その名はシゲオ。シゲオは小学校から誰よりも勉強が得意で常に皆の注目を浴びていた。彼の今の仕事はやり手のプログラマーだ。仕事が休みのある日、コウタはシゲオから久しぶりに会おうと声をかけられ、仕事場に出向いた。するとそこにはクリーンで快適な理想の"
"1610899","outline","11","421239","15000","output","1999","　ある日、人間の家の中で、体の線が細くて柔らかい、真っ白な蜘蛛が生まれました。その白蜘蛛は、暑い冬も寒い冬も、台風の日も、大雪の日も、人間の家の中で快適に暮らしていました。
　ある日、人間の家の外から、黒蜘蛛が家の中に入ってきました。その黒蜘蛛は、体の線が太くて硬く、真っ黒な蜘蛛です。そして黒蜘蛛は白蜘蛛と出会いました。黒蜘蛛は、白蜘蛛の体の線の細さと柔らかさに見とれてしまいました。白蜘蛛もまた、黒蜘蛛の体の線の太さと固さに見とれてしまいました。二匹の蜘蛛は、互いに惹かれ合い、すぐに意気投合して仲良くなりました。互いの生活の様子を話しているうちに、お互いに"
"367640","outline","21","732790","38000","output","1341","高校生の武田茂は戦国シミュレーションゲームにハマっていた。
あまりにも好きすぎて徹夜することもしばしばあり、この日も茂は徹夜でゲームをし、そのまま眠ってしまった。
茂が目覚めるとそこは自宅ではなく、なぜか森の中。
何かのイタズラと思いつつ、山中を彷徨っていると人と出会う。
しかしその人の服装は異常だった。
古くてボロい着物を着ており、明らかに現代日本人ではない。
話してみると言葉は一応通じるが、やはり現代日本語と異なっている。
ここはどこかと尋ねてみると、なんと甲斐の国だという。
治めているのは武田信玄で、戦国時代の真っただ中に転生してしまったことに茂のは気づくのだった。

茂は武田信玄が大好きで、ゲームでも武田信玄を選ぶことが多かった。
そういった経緯から茂は武田信玄率いる武田家を盛り立てていこうと考える。
しかし問題はどうやって武田家にツテを作るかだ。
今の茂はルームウェアを着た、ただの怪しい人間。
そこで茂は出会った村人に神隠しにあったと嘘の事情を話し、同情を引いて協力してもらおうと考える。
幸い村人はよい人だった為、茂に衣類を貸してくれたり、村に住めるよう手配をしてくれた。
茂はさらなる信用を得る為、村長の目につくような活躍をして信頼を得ようとする。

まず茂が考えたのは井戸だ。
現代日本だと蛇口をひねれば水道水が出てくるが、この時代は井戸や川から水を汲んでくるしかない。これはかなりの重労働だ。
そこで中学の技術の時間で習った水の手漕ぎ汲み取り"
"5924178","outline","14","473246","21000","output","1349","太郎はお母さんに一人でスーパーに行ってりんごをに買ってきてと頼まれた。
それは、5歳の太郎の初めてのお使いだった。
人見知りで恥ずかしがり屋の太郎は一人でおつかいができるか不安だったが、大好きなお母さんのため、おつかいに行く事を決意する。
お母さんからお金を受け取り家を出た太郎、しかし、しばらく進むと初めてのおつかいの緊張のせいか、いつも行っているスーパーへの道がわからなくなってしまった。
周りは比較的人通りが多く、道を尋ねる事もできるが、人見知りの太郎は知らない人に声を掛ける事がなかなかできない。
しかし、このままでは大好きなお母さんに頼まれたお使いを達成する事ができない。
太郎は意を決して通りかかった大人に声をかけ、スーパーへの道を聞くことができた。
無事、スーパーにたどり着いた太郎。
目当てのりんごを探し始めるが見つからない。
人見知りの太郎は忙しそうに働いている店員にりんごの場所を聞く事がなかなかできない。
しかし、お母さんのため、そう思うと勇気が湧いてきた太郎は店員にりんごの場所を聞く事ができた。
そして、太郎はりんごをレジに持っていき精算を済ませた。
無事にりんごを手に入れて帰路につく太郎は、家を出る前の人見知りではずかしがりや"
"169251","outline","8","336548","25000","output","1268","チュウタは仲間のネズミ達を集めて演説を始めた。
「このままだと、人間やカラス達に命を奪われてしまう。もっと安心して暮らせる場所に移住しよう」
仲間のネズミ達のうち、長老格の数匹のネズミは命を落とす可能性のある旅への参加を拒否した。
チュウタが諦めずに何度も説得を繰り返していると、チュウタの熱意に負けて長老達は旅への参加を了承した。
仲間達と入念に計画を練りながら準備を進めていくチュウタたち。
準備の途中で"
"2100161","outline","9","343977","15000","output","4643","　真っ白な猫が、下の世界を眺めています。「私と一緒にくらす人は誰が良いかな？」「どの人と一緒なら、その人の役に立てるだろう？」。そんなことを考えながら、眺めていると、ある男の人が目に留まりました。その人は、孤独で人間をあまり好きでない感じがしました。猫は思いました。「この人と一緒にいたい！」　そして猫は意を決して、この世界に飛び込みました。
　それは４月のある晴れた日の事
"
"5144214","outline","11","430639","39000","output","1379","太郎は、どこにでもいるような平凡なサラリーマンだった。
太郎は、いつも通り仕事を終え、いつものスーパーに寄った後、家に帰った。
家に帰った太郎は、玄関の前に、送り主不明の身に覚えのないに荷物が届いていることに気づいた。
宛先を確認すると、自分あてだったので、不思議に思いながらも、太郎は荷物を部屋の中に運んで、中身を空けてみることにした。
中身を空けると、そこにはロボットが入っていた。
スイッチを押すと、ロボットが起動し、「私はAIロボットです。これからあなたの生活を手助けします。どんなことでも相談してください。」と言った。
それから、太郎は、そのロボットと一緒に生活した。
ロボットは、とても頼りがいがあって、太郎はかなり助けられていた。
おかげで太郎は、仕事でも成功し、大きく祖腐心することができた。
また、プライベートでも素敵な女性と出会い、結婚し、幸せな家庭をきづくことも"
"1541203","outline","1","76445","26000","planning","1427","きつねのコン太は、父と母と3匹で暮らしていた。
コン太は、両親のも"
"1034994","outline","14","521835","26000","output","509","目を開けた瞬間、直哉は息を呑んだ。
頭上には、見たこともないほど青く澄んだ空。木々は高くそびえ、葉の間からこぼれる光は金色に輝いていた。
ここは、どこだ？
最後に覚えているのは、深夜まで残業して、帰宅途中に急な眠気に襲われたことだけ。

足音がした。振り返ると、そこには一人の少女が立っていた。
淡い銀色の髪に、湖のような瞳。背には、淡く光を放つ羽のようなものが揺れている。
「あなた……人間？」
少女の声は透き通っていたが、その瞳には警戒の色があった。

突然、矢が飛んできた。少女は瞬時に手をかざし、空中で矢は氷の結晶となって砕け散る。
「急いで！　精霊たちが狙われているの！」
そう告げると、彼女は駆け出した。直哉は訳も分からぬまま、その後を追った。

少女の名はリィナ。森に棲む精霊たちの守護者であり、人間の狩人たちから彼らを守っているという。
直哉は、彼女の真っ直ぐな信念に心を打たれ、共に旅をすることを決意する。

旅の道中、二人は獣人の村、地下に暮らすドワーフ、天空の浮島に住む翼人など、さまざまな種族と出会う。
しかしどの地にも、人間による精霊狩りの影が忍び寄っていた。
それぞれの種族には、戦わざるを得ない事情や深い悲しみがあった。

やがて二人は、精霊を狙う黒衣の男??「影喰い」と呼ばれる存在と対峙する。
彼は異世界の均衡を崩し、精霊の命を力に変えて世界を支配しようとしていた。
「直哉、お前は選べ。この世界を救うか、元の世界に戻るか」
影喰いの言葉は、直哉の胸を突き刺す。

戦いの果てに影喰いは倒れる。しかし、世界を救った後、精霊たちは彼に別れを告げる。
リィナは笑顔を浮かべたが、その瞳にはわずかな涙が光っていた。
「……あなたの世界にも、きっと守るべきものがあるでしょう？」

直哉は元の世界に戻ることを選んだ。
通勤電車の窓から見える景色は以前と変わらない。しかし、彼の心には異世界の森の風、仲間たちの笑い声、リィナの微笑みが残っていた。

その日から、彼は小さな優しさを積み重ねるようになった。道端の花を守り、困っている人に手を差し伸べ、日常の中で精霊のような存在を見つけ出す。
あの世界で学んだことは、今も確かに生きている。"
"2592945","outline","10","363262","17000","planning","1147","コウタは今日も灼熱の道路工事の仕事に精を出していた。決して望んで就いた仕事ではない。学生の頃から勉強嫌いで就職先を選べなかったからだ。コウタには幼馴染の友達がいた。その名はシゲオ。シゲオは小学校から誰よりも勉強が得意で常に皆の注目を浴びていた。彼の今の仕事はやり手のプログラマーだ。仕事が休みのある日、コウタはシゲオから久しぶりに会おうと声をかけられ、仕事場に出向いた。するとそこにはクリーンで快適な理想の空間が広がっていた。"
"5041386","outline","15","515319","36000","output","1476","ここはネズミの国です。ネズミたちの仲間が平和にのびのび暮らしていました。
その国に、ネズミの少年チュウタがいました。チュウタは他のネズミより体が小さいことにコンプレックスを持っていましたが、友達に恵まれそれなりに楽しく暮らしていました。

しかしある時、ドラ猫のドーラが国にやってきて大暴れしました。
ネズミはドーラを恐れてしまい、誰も立ち向かいません。
やがてドーラはネズミたちを支配するようになりました。

ドーラの暴力に怯える日々。
ある日、チュウタは友達がドーラに襲われている現場に出くわしました。
「助けて」と訴える友達と震えるチュウタ「ぼくなんかじゃどうしようもない」……それでもチュウタは勇気を振り絞り、ドーラに立ち向かいます。

しかしチュウタの力ではやはりドーラにかないません。
ドーラの猛攻に「もうだめだ」と思った"
"769122","outline","15","515710","28000","output","719","黒猫のミーは元気な男の子。森の中で1人で過ごしていたけれど、そんな彼にもどうしても忘れられない出会いがありました。それが、子猫の頃に森にお花を摘みにやってきた女の子です。
その様子を木陰からじっと見守っていましたが、子猫の陰に気づいた女の子が優しく話しかけてくれました。その時に、子猫は「ミー」という名前をもらったのです。
女のことはそれきりだったものの、ミーは彼女の優しい笑顔をよく思い出していました。
やがて月日は流れ、ミーも立派な大人になります。狩りも上手になり、行動範囲も広がりました。そこでミーは、今度は自分から女の子に会いに行こうと思い立ちました。
あの時に女の子は、自分が森のはずれにある街に住んでいることを教えてくれたので、それほど距離は離れていないはず。自分の足でもきっと行けるはずです。
道中にはさまざまな困難がありましたが、ミーをよく知るうさぎやリス、鹿やキツネなどが手助けしてくれます。女の子を見たことがあるという情報もくれました。
やっとたどり着いた町はしずかない"
"1451340","outline","14","486104","45000","revision","2174","ある川の中に一匹の真っ黒い鯉が住んでいたが、周りの鯉たちはとてもきれいな柄をしており、それをみた黒い鯉は悩んでいた。
ある日、大雨が何日も降り注ぎ、住んでいた川があふれかえり黒い鯉は流されてしまった。
目が覚めたら全く知らない場所に来ており戸惑っていたがあるドジョウが声をかけてきた。とても楽しくおしゃべりしたり遊んだり、違う生き物たちと触れ合う中で黒い鯉は固くなっていた心がやわらかくなっていった。

そんな中、自分と似たようなメスと恋に落ちその場所で幸せにずっと暮らしていった。"
"4415810","outline","7","332672","31000","output","2024","今日も都会の喧騒にうんざりとした彼は足取りも重く帰途についていた。
彼は眠る前にいつもの空想にふけっていました。
ああ、都会の煩わしい喧騒から離れて田舎で農業を営みたいと。
睡魔に負け、ふと目が覚めると、見たこともない場所にいた。
広大な自然が広がり、小さな集落が見えた。
なぜかもう、帰ることができないと理解でき"
"367640","outline","22","751982","16000","planning","833","高校生の武田茂は戦国シミュレーションゲームにハマっていた。
あまりにも好きすぎて徹夜することもしばしばあり、この日も茂は徹夜でゲームをし、そのまま眠ってしまった。
茂が目覚めるとそこは自宅ではなく、なぜか森の中。
何かのイタズラと思いつつ、山中を彷徨っていると人と出会う。
しかしその人の服装は異常だった。
古くてボロい着物を着ており、明らかに現代日本人ではない。
話してみると言葉は一応通じるが、やはり現代日本語と異なっている。
ここはどこかと尋ねてみると、なんと甲斐の国だという。
治めているのは武田信玄で、戦国時代の真っただ中に転生してしまったことに茂のは気づくのだった。

茂は武田信玄が大好きで、ゲームでも武田信玄を選ぶことが多かった。
そういった経緯から茂は武田信玄率いる武田家を盛り立てていこうと考える。
しかし問題はどうやって武田家にツテを作るかだ。
今の茂はルームウェアを着た、ただの怪しい人間。
そこで茂は出会った村人に神隠しにあったと嘘の事情を話し、同情を引いて協力してもらおうと考える。
幸い村人はよい人だった為、茂に衣類を貸してくれたり、村に住めるよう手配をしてくれた。
茂はさらなる信用を得る為、村長の目につくような活躍をして信頼を得ようとする。

まず茂が考えたのは井戸だ。
現代日本だと蛇口をひねれば水道水が出てくるが、この時代は井戸や川から水を汲んでくるしかない。これはかなりの重労働だ。
そこで中学の技術の時間で習った水の手漕ぎ汲み取り機の開発に着手する。
一高校生であった茂"
"81949","outline","2","106085","30000","output","1652","進学校に通っている悟は、最近なぜ勉強しているのか、人生とは一体何なのか、答えが見つからず悩んでいた"
"5302284","outline","4","189135","45000","planning","751","ネズミのチュウタが七つの島を巡る冒険の物語がはじまります。一つの目の島で鹿のティコと出会い一緒に冒険に出るようになりました。２つ目の島では一つ目の鬼と死闘を交わして金色の輝く秘宝を手に入れました。"
"5081515","outline","9","399918","37000","planning","1122","私の住んでいる場所は地面の上だった。暑い時も、寒い時も、ずっと一人だった。ごはんも置かれるだけで、一人で食べた。飲み水もずっと置きっぱなしで、時々水たまりも飲んだ。
ある時私は全然知らないところに連れて行ってもらえた。なんだか大きな施設だった。私の飼い主は私を置いて帰ってしまった。いつ迎えに来てくれるんだろうと待っていたら、なんだか知らない人が私を連れて行ってくれた。
新しいおうちは屋根があった。いつも誰かが一緒にいてくれる。知らないものがたくさんあって、なんだかすごく楽しかった。お水もいつも冷たくておいしかった。知らないところにもたくさん連れて行ってもらえて、"
"115345","outline","2","132801","45000","planning","1585","太郎は新人のプロレスラー。まだまだ弱くて、一度も試合に勝利したことはない。"
"4101728","outline","4","212773","40000","planning","1593","キツネとタヌキの化かしあい
変化が苦手なタヌキがいました。
そなんなタヌキをいつも小馬鹿にしていたキツネがある日、どっちが多くの人間たちを驚かせられるか勝負しようと言ってきました。
タヌキは断ろうとしましたが、"
"1541203","outline","2","102277","21000","output","2488","きつねのコン太は、父と母と3匹で暮らしていた。
コン太は、両親のもとで、元気に"
"169251","outline","9","367172","28000","output","1209","チュウタは仲間のネズミ達を集めて演説を始めた。
「このままだと、人間やカラス達に命を奪われてしまう。もっと安心して暮らせる場所に移住しよう」
仲間のネズミ達のうち、長老格の数匹のネズミは命を落とす可能性のある旅への参加を拒否した。
チュウタが諦めずに何度も説得を繰り返していると、チュウタの熱意に負けて長老達は旅への参加を了承した。
仲間達と入念に計画を練りながら準備を進めていくチュウタたち。
準備の途中で、ネズミ狩の人間達に数匹の仲間が駆除されてしまうアクシデントがあったものの、"
"5144214","outline","12","462183","28000","output","2156","太郎は、どこにでもいるような平凡なサラリーマンだった。
太郎は、いつも通り仕事を終え、いつものスーパーに寄った後、家に帰った。
家に帰った太郎は、玄関の前に、送り主不明の身に覚えのないに荷物が届いていることに気づいた。
宛先を確認すると、自分あてだったので、不思議に思いながらも、太郎は荷物を部屋の中に運んで、中身を空けてみることにした。
中身を空けると、そこにはロボットが入っていた。
スイッチを押すと、ロボットが起動し、「私はAIロボットです。これからあなたの生活を手助けします。どんなことでも相談してください。」と言った。
それから、太郎は、そのロボットと一緒に生活した。
ロボットは、とても頼りがいがあって、太郎はかなり助けられていた。
おかげで太郎は、仕事でも成功し、大きく祖腐心することができた。
また、プライベートでも素敵な女性と出会い、結婚し、幸せな家庭を築くこともできた。
そうやって、順調に20ね"
"1610899","outline","12","467415","41000","output","3393","　ある日、人間の家の中で、体の線が細くて柔らかい、真っ白な蜘蛛が生まれました。その白蜘蛛は、暑い冬も寒い冬も、台風の日も、大雪の日も、人間の家の中で快適に暮らしていました。
　ある日、人間の家の外から、黒蜘蛛が家の中に入ってきました。その黒蜘蛛は、体の線が太くて硬く、真っ黒な蜘蛛です。そして黒蜘蛛は白蜘蛛と出会いました。黒蜘蛛は、白蜘蛛の体の線の細さと柔らかさに見とれてしまいました。白蜘蛛もまた、黒蜘蛛の体の線の太さと固さに見とれてしまいました。二匹の蜘蛛は、互いに惹かれ合い、すぐに意気投合して仲良くなりました。互いの生活の様子を話しているうちに、お互いの生活に憧れを抱くようになり、巣を交換して"
"1451340","outline","15","512271","22000","revision","1416","ある川の中に一匹の真っ黒い鯉が住んでいたが、周りの鯉たちはとてもきれいな柄をしており、それをみた黒い鯉は悩んでいた。
ある日、大雨が何日も降り注ぎ、住んでいた川があふれかえり黒い鯉は流されてしまった。
目が覚めたら全く知らない場所に来ており戸惑っていたが、あるドジョウが声をかけてきた。とても楽しくおしゃべりしたり遊んだり、違う生き物たちと触れ合う中で黒い鯉は固くなっていた心がやわらかくなっていった。

そんな中、自分と似たようなメスと恋に落ちその場所で幸せにずっと暮らしていった。"
"81949","outline","3","128279","19000","output","1715","進学校に通っている高校三年の悟は、最近なぜ勉強しているのか、人生とは一体何なのか、答えが見つからず悩んでいた。"
"769122","outline","16","549462","31000","output","687","黒猫のミーは元気な男の子。森の中で1人で過ごしていたけれど、そんな彼にもどうしても忘れられない出会いがありました。それが、子猫の頃に森にお花を摘みにやってきた女の子です。
その様子を木陰からじっと見守っていましたが、子猫の陰に気づいた女の子が優しく話しかけてくれました。その時に、子猫は「ミー」という名前をもらったのです。
女のことはそれきりだったものの、ミーは彼女の優しい笑顔をよく思い出していました。
やがて月日は流れ、ミーも立派な大人になります。狩りも上手になり、行動範囲も広がりました。そこでミーは、今度は自分から女の子に会いに行こうと思い立ちました。
あの時に女の子は、自分が森のはずれにある街に住んでいることを教えてくれたので、それほど距離は離れていないはず。自分の足でもきっと行けるはずです。
道中にはさまざまな困難がありましたが、ミーをよく知るうさぎやリス、鹿やキツネなどが手助けしてくれます。女の子を見たことがあるという情報もくれました。
やっとたどり着いた町は静かないいところです。自分と同じような猫も暮らしていて雰囲気もよさそう。かれたｈ"
"1034994","outline","15","560062","36000","output","1215","目を開けた瞬間、直哉は息を呑んだ。
頭上には、見たこともないほど青く澄んだ空。木々は高くそびえ、葉の間からこぼれる光は金色に輝いていた。
ここは、どこだ？
最後に覚えているのは、深夜まで残業して、帰宅途中に急な眠気に襲われたことだけ。

足音がした。振り返ると、そこには一人の少女が立っていた。
淡い銀色の髪に、湖のような瞳。背には、淡く光を放つ羽のようなものが揺れている。
「あなた……人間？」
少女の声は透き通っていたが、その瞳には警戒の色があった。

突然、矢が飛んできた。少女は瞬時に手をかざし、空中で矢は氷の結晶となって砕け散る。
「急いで！　精霊たちが狙われているの！」
そう告げると、彼女は駆け出した。直哉は訳も分からぬまま、その後を追った。

少女の名はリィナ。森に棲む精霊たちの守護者であり、人間の狩人たちから彼らを守っているという。
直哉は、彼女の真っ直ぐな信念に心を打たれ、共に旅をすることを決意する。

旅の道中、二人は獣人の村、地下に暮らすドワーフ、天空の浮島に住む翼人など、さまざまな種族と出会う。
しかしどの地にも、人間による精霊狩りの影が忍び寄っていた。
それぞれの種族には、戦わざるを得ない事情や深い悲しみがあった。

やがて二人は、精霊を狙う黒衣の男??「影喰い」と呼ばれる存在と対峙する。
彼は異世界の均衡を崩し、精霊の命を力に変えて世界を支配しようとしていた。
「直哉、お前は選べ。この世界を救うか、元の世界に戻るか」
影喰いの言葉は、直哉の胸を突き刺す。

戦いの果てに影喰いは倒れる。しかし、世界を救った後、精霊たちは彼に別れを告げる。
リィナは笑顔を浮かべたが、その瞳にはわずかな涙が光っていた。
「……あなたの世界にも、きっと守るべきものがあるでしょう？」

直哉は元の世界に戻ることを選んだ。
通勤電車の窓から見える景色は以前と変わらない。しかし、彼の心には異世界の森の風、仲間たちの笑い声、リィナの微笑みが残っていた。

その日から、彼は小さな優しさを積み重ねるようになった。道端の花を守り、困っている人に手を差し伸べ、日常の中で精霊のような存在を見つけ出す。
あの世界で学んだことは、今も確かに生きている。"
"5081515","outline","10","423998","19000","planning","2504","私の住んでいる場所は地面の上だった。暑い時も、寒い時も、ずっと一人だった。ごはんも置かれるだけで、一人で食べた。飲み水もずっと置きっぱなしで、時々水たまりも飲んだ。
ある時私は全然知らないところに連れて行ってもらえた。なんだか大きな施設だった。私の飼い主は私を置いて帰ってしまった。いつ迎えに来てくれるんだろうと待っていたら、なんだか知らない人が私を連れて行ってくれた。
新しいおうちは屋根があった。いつも誰かが一緒にいてくれる。知らないものがたくさんあって、なんだかすごく楽しかった。お水もいつも冷たくておいしかった。知らないところにもたくさん連れて行ってもらえて、沢山においを嗅いだり、"
"2592945","outline","11","402508","36000","output","1763","コウタは今日も灼熱の道路工事の仕事に精を出していた。決して望んで就いた仕事ではない。学生の頃から勉強嫌いで就職先を選べなかったからだ。コウタには幼馴染の友達がいた。その名はシゲオ。シゲオは小学校から誰よりも勉強が得意で常に皆の注目を浴びていた。彼の今の仕事はやり手のプログラマーだ。仕事が休みのある日、コウタはシゲオから久しぶりに会おうと声をかけられ、仕事場に出向いた。するとそこにはクリーンで快適な理想の空間が広がっていた。自分にできるか分からないがオレもこんな恵まれた環境で仕事がしたい。そう思ったコウタは一念発起し、独学でぷろぐらみんｇ無謀にも"
"5041386","outline","16","555935","37000","other","1425","ここはネズミの国です。ネズミたちの仲間が平和にのびのび暮らしていました。
その国に、ネズミの少年チュウタがいました。チュウタは他のネズミより体が小さいことにコンプレックスを持っていましたが、友達に恵まれそれなりに楽しく暮らしていました。

しかしある時、ドラ猫のドーラが国にやってきて大暴れしました。
ネズミはドーラを恐れてしまい、誰も立ち向かいません。
やがてドーラはネズミたちを支配するようになりました。

ドーラの暴力に怯える日々。
ある日、チュウタは友達がドーラに襲われている現場に出くわしました。
「助けて」と訴える友達と震えるチュウタ「ぼくなんかじゃどうしようもない」……それでもチュウタは勇気を振り絞り、ドーラに立ち向かいます。

しかしチュウタの力ではやはりドーラにかないません。
ドーラの猛攻に「もうだめだ」と思ったとき、
「"
"4415810","outline","8","372043","35000","output","1595","今日も都会の喧騒にうんざりとした彼は足取りも重く帰途についていた。
彼は眠る前にいつもの空想にふけっていました。
ああ、都会の煩わしい喧騒から離れて田舎で農業を営みたいと。
睡魔に負け、ふと目が覚めると、見たこともない場所にいた。
広大な自然が広がり、小さな集落が見えた。
なぜかもう、帰ることができないと理解できた。
そこに、通りがかる住民に挨拶をし、このあたりのことを"
"4101728","outline","5","243452","23000","planning","1693","キツネとタヌキの化かしあい
変化が苦手なタヌキがいました。
そなんなタヌキをいつも小馬鹿にしていたキツネがある日、どっちが多くの人間たちを驚かせられるか勝負しようと言ってきました。
タヌキは断ろうとしましたが、勝負に勝ったらタヌキが"
"1451340","outline","16","531495","16000","revision","1200","ある川の中に一匹の真っ黒い鯉が住んでいたが、周りの鯉たちはとてもきれいな柄をしており、それをみた黒い鯉は悩んでいた。
ある日、大雨が何日も降り注ぎ、住んでいた川があふれかえり黒い鯉は流されてしまった。
目が覚めたら全く知らない場所に来ており戸惑っていたが、あるドジョウが声をかけてきた。とても楽しくおしゃべりしたり遊んだり、違う生き物たちと触れ合う中で黒い鯉は固くなっていた心がやわらかくなっていった。

そんな中、自分と似たようなメスと恋に落ちその場所で幸せにずっと暮らしていった。"
"367640","outline","23","794750","40000","output","925","高校生の武田茂は戦国シミュレーションゲームにハマっていた。
あまりにも好きすぎて徹夜することもしばしばあり、この日も茂は徹夜でゲームをし、そのまま眠ってしまった。
茂が目覚めるとそこは自宅ではなく、なぜか森の中。
何かのイタズラと思いつつ、山中を彷徨っていると人と出会う。
しかしその人の服装は異常だった。
古くてボロい着物を着ており、明らかに現代日本人ではない。
話してみると言葉は一応通じるが、やはり現代日本語と異なっている。
ここはどこかと尋ねてみると、なんと甲斐の国だという。
治めているのは武田信玄で、戦国時代の真っただ中に転生してしまったことに茂のは気づくのだった。

茂は武田信玄が大好きで、ゲームでも武田信玄を選ぶことが多かった。
そういった経緯から茂は武田信玄率いる武田家を盛り立てていこうと考える。
しかし問題はどうやって武田家にツテを作るかだ。
今の茂はルームウェアを着た、ただの怪しい人間。
そこで茂は出会った村人に神隠しにあったと嘘の事情を話し、同情を引いて協力してもらおうと考える。
幸い村人はよい人だった為、茂に衣類を貸してくれたり、村に住めるよう手配をしてくれた。
茂はさらなる信用を得る為、村長の目につくような活躍をして信頼を得ようとする。

まず茂が考えたのは井戸だ。
現代日本だと蛇口をひねれば水道水が出てくるが、この時代は井戸や川から水を汲んでくるしかない。これはかなりの重労働だ。
そこで中学時代に技術の時間で習った水の手漕ぎ汲み取り機の開発に着手する。
一高校生であった茂がい"
"81949","outline","4","150017","18000","output","2494","進学校に通っている高校三年の悟は、最近なぜ勉強しているのか、人生とは一体何なのか、答えが見つからず悩んでいた。
その日はあさか"
"5144214","outline","13","491991","26000","output","1995","太郎は、どこにでもいるような平凡なサラリーマンだった。
太郎は、いつも通り仕事を終え、いつものスーパーに寄った後、家に帰った。
家に帰った太郎は、玄関の前に、送り主不明の身に覚えのないに荷物が届いていることに気づいた。
宛先を確認すると、自分あてだったので、不思議に思いながらも、太郎は荷物を部屋の中に運んで、中身を空けてみることにした。
中身を空けると、そこにはロボットが入っていた。
スイッチを押すと、ロボットが起動し、「私はAIロボットです。これからあなたの生活を手助けします。どんなことでも相談してください。」と言った。
それから、太郎は、そのロボットと一緒に生活した。
ロボットは、とても頼りがいがあって、太郎はかなり助けられていた。
おかげで太郎は、仕事でも成功し、大きく祖腐心することができた。
また、プライベートでも素敵な女性と出会い、結婚し、幸せな家庭を築くこともできた。
そうやって、順風満帆な生活を太郎は送っていた。
20"
"5302284","outline","5","235399","43000","output","994","ネズミのチュウタが七つの島を巡る冒険の物語がはじまります。一つの目の島で鹿のティコと出会い一緒に冒険に出るようになりました。２つ目の島では一つ目の鬼と死闘を交わして金色の輝く秘宝を手に入れました。３つ目の島で"
"1541203","outline","3","141670","31000","output","5169","
きつねのコン太は、父と母と3匹で暮らしていた。
コン太は、両親のもとで、元気だった。
しかし、"
"115345","outline","3","175937","38000","output","2511","太郎は新人のプロレスラー。デビューから半年が経つが、まだまだ弱くて、一度も試合に勝利したことはない。そこで所属団体の会長から、次はタッグチームでしゅ"
"1610899","outline","13","500288","29000","output","2844","　ある日、人間の家の中で、体の線が細くて柔らかい、真っ白な蜘蛛が生まれました。その白蜘蛛は、暑い冬も寒い冬も、台風の日も、大雪の日も、人間の家の中で快適に暮らしていました。
　ある日、人間の家の外から、黒蜘蛛が家の中に入ってきました。その黒蜘蛛は、体の線が太くて硬く、真っ黒な蜘蛛です。そして黒蜘蛛は白蜘蛛と出会いました。黒蜘蛛は、白蜘蛛の体の線の細さと柔らかさに見とれてしまいました。白蜘蛛もまた、黒蜘蛛の体の線の太さと固さに見とれてしまいました。二匹の蜘蛛は、互いに惹かれ合い、すぐに意気投合して仲良くなりました。互いの生活の様子を話しているうちに、お互いの生活に憧れを抱くようになり、巣を交換してしばらく生活してみないかという話になり、互いの巣を交換してみることにしました。しろく"
"2592945","outline","12","424480","18000","output","2411","コウタは今日も灼熱の道路工事の仕事に精を出していた。決して望んで就いた仕事ではない。学生の頃から勉強嫌いで就職先を選べなかったからだ。コウタには幼馴染の友達がいた。その名はシゲオ。シゲオは小学校から誰よりも勉強が得意で常に皆の注目を浴びていた。彼の今の仕事はやり手のプログラマーだ。仕事が休みのある日、コウタはシゲオから久しぶりに会おうと声をかけられ、仕事場に出向いた。するとそこにはクリーンで快適な理想の空間が広がっていた。自分にできるか分からないがオレもこんな恵まれた環境で仕事がしたい。そう思ったコウタは一念発起し、独学でプログラミングの勉強を始めた。無謀にもみえる挑戦"
"169251","outline","10","410706","41000","output","1240","チュウタは仲間のネズミ達を集めて演説を始めた。
「このままだと、人間やカラス達に命を奪われてしまう。もっと安心して暮らせる場所に移住しよう」
仲間のネズミ達のうち、長老格の数匹のネズミは命を落とす可能性のある旅への参加を拒否した。
チュウタが諦めずに何度も説得を繰り返していると、チュウタの熱意に負けて長老達は旅への参加を了承した。
仲間達と入念に計画を練りながら準備を進めていくチュウタたち。
準備の途中で、ネズミ狩の人間達に数匹の仲間が駆除されてしまうアクシデントがあったものの、無事に準備を完了させることが出来た。
移住の旅を開始して２０日を過ぎた頃によういして"
"6169624","outline","15","735277","18000","other","237372","＜人はなぜつまらないと初めからわかっているスポーツに関心を示してしまうのか？＞

サッカーが嫌いだということは、実は賢いという人間であれば堅実な内容であると言えます。世の中はとにかく汚いビジネスに侵されており、鬱陶しさが否めないというのが実情です。
またこういった偏向傾向を生んだのは、金儲けに目がくらんだマスコミそのものであり、嫌いなものをとことん見たくない人間を破滅させることはみじんも理解していないと考えられます。
それから美的センスに欠ける内容は、自分自身で排除して欠航であり、稚拙なスポーツニュースは一切見聞きしないというのが賢い人が行うべき行動なのです。同時に世の中に振り回されることを防ぐには、自分自身で好きなものを優先させて自ら生きるということが大事になってきます。
人間らしく生きるには、人間自身が自らを証明しなければなりません。
これが本当の面白さなのです。"
"5041386","outline","17","582239","23000","revision","1259","ここはネズミの国です。ネズミたちの仲間が平和にのびのび暮らしていました。
その国に、ネズミの少年チュウタがいました。チュウタは他のネズミより体が小さいことにコンプレックスを持っていましたが、友達に恵まれそれなりに楽しく暮らしていました。

しかしある時、ドラ猫のドーラが国にやってきて大暴れしました。
ネズミはドーラを恐れてしまい、誰も立ち向かいません。
やがてドーラはネズミたちを支配するようになりました。

ドーラの暴力に怯える日々。
ある日、チュウタは友達がドーラに襲われている現場に出くわしました。
「助けて」と訴える友達と震えるチュウタ「ぼくなんかじゃどうしようもない」……それでもチュウタは勇気を振り絞り、ドーラに立ち向かいます。

しかしチュウタの力ではやはりドーラにかないません。
ドーラの猛攻に「もうだめだ」と思ったとき、
「チュ"
"5081515","outline","11","463582","36000","output","1361","私の住んでいる場所は地面の上だった。暑い時も、寒い時も、ずっと一人だった。ごはんも置かれるだけで、一人で食べた。飲み水もずっと置きっぱなしで、時々水たまりも飲んだ。
ある時私は全然知らないところに連れて行ってもらえた。なんだか大きな施設だった。私の飼い主は私を置いて帰ってしまった。いつ迎えに来てくれるんだろうと待っていたら、なんだか知らない人が私を連れて行ってくれた。
新しいおうちは屋根があった。いつも誰かが一緒にいてくれる。知らないものがたくさんあって、なんだかすごく楽しかった。お水もいつも冷たくておいしかった。知らないところにもたくさん連れて行ってもらえて、沢山においを嗅いだり、景色を見たり、歩いて走って風を感じて、くたくたになるまで"
"769122","outline","17","591189","39000","output","863","黒猫のミーは元気な男の子。森の中で1人で過ごしていたけれど、そんな彼にもどうしても忘れられない出会いがありました。それが、子猫の頃に森にお花を摘みにやってきた女の子です。
その様子を木陰からじっと見守っていましたが、子猫の陰に気づいた女の子が優しく話しかけてくれました。その時に、子猫は「ミー」という名前をもらったのです。
女のことはそれきりだったものの、ミーは彼女の優しい笑顔をよく思い出していました。
やがて月日は流れ、ミーも立派な大人になります。狩りも上手になり、行動範囲も広がりました。そこでミーは、今度は自分から女の子に会いに行こうと思い立ちました。
あの時に女の子は、自分が森のはずれにある街に住んでいることを教えてくれたので、それほど距離は離れていないはず。自分の足でもきっと行けるはずです。
道中にはさまざまな困難がありましたが、ミーをよく知るうさぎやリス、鹿やキツネなどが手助けしてくれます。女の子を見たことがあるという情報もくれました。
やっとたどり着いた町は静かないいところです。自分と同じような猫も暮らしていて雰囲気もよさそう。彼らはとても気さくで、ミーの探している女の子のことも、どこに住んでいるかもすぐにわかりました。
ようやく、待ちに待った再会。"
"5302284","outline","6","258372","20000","planning","836","ネズミのチュウタが七つの島を巡る冒険の物語がはじまります。一つの目の島で鹿のティコと出会い一緒に冒険に出るようになりました。２つ目の島では一つ目の鬼と死闘を交わして金色の輝く秘宝を手に入れました。３つ目の島でワシの"
"4415810","outline","9","408865","31000","planning","2024","今日も都会の喧騒にうんざりとした彼は足取りも重く帰途についていた。
彼は眠る前にいつもの空想にふけっていました。
ああ、都会の煩わしい喧騒から離れて田舎で農業を営みたいと。
睡魔に負け、ふと目が覚めると、見たこともない場所にいた。
広大な自然が広がり、小さな集落が見えた。
なぜかもう、帰ることができないと理解できた。
そこに、通りがかる住民に挨拶をし、このあたりのことを聞くことにした。

"
"1034994","outline","16","605369","42000","output","456","目を開けた瞬間、直哉は息を呑んだ。
頭上には、見たこともないほど青く澄んだ空。木々は高くそびえ、葉の間からこぼれる光は金色に輝いていた。
ここは、どこだ？
最後に覚えているのは、深夜まで残業して、帰宅途中に急な眠気に襲われたことだけ。

足音がした。振り返ると、そこには一人の少女が立っていた。
淡い銀色の髪に、湖のような瞳。背には、淡く光を放つ羽のようなものが揺れている。
「あなた……人間？」
少女の声は透き通っていたが、その瞳には警戒の色があった。

突然、矢が飛んできた。少女は瞬時に手をかざし、空中で矢は氷の結晶となって砕け散る。
「急いで！　精霊たちが狙われているの！」
そう告げると、彼女は駆け出した。直哉は訳も分からぬまま、その後を追った。

少女の名はリィナ。森に棲む精霊たちの守護者であり、人間の狩人たちから彼らを守っているという。
直哉は、彼女の真っ直ぐな信念に心を打たれ、共に旅をすることを決意する。

旅の道中、二人は獣人の村、地下に暮らすドワーフ、天空の浮島に住む翼人など、さまざまな種族と出会う。
しかしどの地にも、人間による精霊狩りの影が忍び寄っていた。
それぞれの種族には、戦わざるを得ない事情や深い悲しみがあった。

やがて二人は、精霊を狙う黒衣の男??「影喰い」と呼ばれる存在と対峙する。
彼は異世界の均衡を崩し、精霊の命を力に変えて世界を支配しようとしていた。
「直哉、お前は選べ。この世界を救うか、元の世界に戻るか」
影喰いの言葉は、直哉の胸を突き刺す。

戦いの果てに影喰いは倒れる。しかし、世界を救った後、精霊たちは彼に別れを告げる。
リィナは笑顔を浮かべたが、その瞳にはわずかな涙が光っていた。
「……あなたの世界にも、きっと守るべきものがあるでしょう？」

直哉は元の世界に戻ることを選んだ。
通勤電車の窓から見える景色は以前と変わらない。しかし、彼の心には異世界の森の風、仲間たちの笑い声、リィナの微笑みが残っていた。

その日から、彼は小さな優しさを積み重ねるようになった。道端の花を守り、困っている人に手を差し伸べ、日常の中で精霊のような存在を見つけ出す。
あの世界で学んだことは、今も確かに生きている。"
"5144214","outline","14","522662","26000","output","2148","太郎は、どこにでもいるような平凡なサラリーマンだった。
太郎は、いつも通り仕事を終え、いつものスーパーに寄った後、家に帰った。
家に帰った太郎は、玄関の前に、送り主不明の身に覚えのないに荷物が届いていることに気づいた。
宛先を確認すると、自分あてだったので、不思議に思いながらも、太郎は荷物を部屋の中に運んで、中身を空けてみることにした。
中身を空けると、そこにはロボットが入っていた。
スイッチを押すと、ロボットが起動し、「私はAIロボットです。これからあなたの生活を手助けします。どんなことでも相談してください。」と言った。
それから、太郎は、そのロボットと一緒に生活した。
ロボットは、とても頼りがいがあって、太郎はかなり助けられていた。
おかげで太郎は、仕事でも成功し、大きく祖腐心することができた。
また、プライベートでも素敵な女性と出会い、結婚し、幸せな家庭を築くこともできた。
そうやって、順風満帆な生活を太郎は送っていた。
20年後、太郎は、会社で"
"1610899","outline","14","526103","22000","output","2696","　ある日、人間の家の中で、体の線が細くて柔らかい、真っ白な蜘蛛が生まれました。その白蜘蛛は、暑い冬も寒い冬も、台風の日も、大雪の日も、人間の家の中で快適に暮らしていました。
　ある日、人間の家の外から、黒蜘蛛が家の中に入ってきました。その黒蜘蛛は、体の線が太くて硬く、真っ黒な蜘蛛です。そして黒蜘蛛は白蜘蛛と出会いました。黒蜘蛛は、白蜘蛛の体の線の細さと柔らかさに見とれてしまいました。白蜘蛛もまた、黒蜘蛛の体の線の太さと固さに見とれてしまいました。二匹の蜘蛛は、互いに惹かれ合い、すぐに意気投合して仲良くなりました。互いの生活の様子を話しているうちに、お互いの生活に憧れを抱くようになり、巣を交換してしばらく生活してみないかという話になり、互いの巣を交換してみることにしました。白蜘蛛は家の外の黒蜘蛛の巣に、黒蜘蛛は家のな"
"81949","outline","5","185839","33000","output","1245","進学校に通っている高校三年の悟は、最近なぜ勉強しているのか、人生とは一体何なのか、答えが見つからず悩んでいた。
その日は朝から暑く、午後2時過ぎには38℃超え、夜の1"
"1451340","outline","17","571710","37000","revision","1040","ある川の中に一匹の真っ黒い鯉が住んでいたが、周りの鯉たちはとてもきれいな柄をしており、それをみた黒い鯉は悩んでいた。
ある日、大雨が何日も降り注ぎ、住んでいた川があふれかえり黒い鯉は流されてしまった。
目が覚めたら全く知らない場所に来ており戸惑っていたが、あるドジョウが声をかけてきた。とても楽しくおしゃべりしたり遊んだり、違う生き物たちと触れ合う中で黒い鯉は固くなっていた心がしだいにやわらかくなっていった。

そんな中、自分と似たようなメスと恋に落ちその場所でずっと幸せに暮らした。"
"4101728","outline","6","286044","31000","output","1550","キツネとタヌキの化かしあい
変化が苦手なタヌキがいました。
そなんなタヌキをいつも小馬鹿にしていたキツネがある日、どっちが多くの人間たちを驚かせられるか勝負しようと言ってきました。
タヌキは断ろうとしましたが、勝負に勝ったらタヌキが欲しいものを1つだけ絶対に叶えてあげるとキツネ"
"2592945","outline","13","454716","27000","output","1194","コウタは今日も灼熱の道路工事の仕事に精を出していた。決して望んで就いた仕事ではない。学生の頃から勉強嫌いで就職先を選べなかったからだ。コウタには幼馴染の友達がいた。その名はシゲオ。シゲオは小学校から誰よりも勉強が得意で常に皆の注目を浴びていた。彼の今の仕事はやり手のプログラマーだ。仕事が休みのある日、コウタはシゲオから久しぶりに会おうと声をかけられ、仕事場に出向いた。するとそこにはクリーンで快適な理想の空間が広がっていた。自分にできるか分からないがオレもこんな恵まれた環境で仕事がしたい。そう思ったコウタは一念発起し、独学でプログラミングの勉強を始めた。無謀な挑戦にもみえたが、コウタは数学の知識ほぼｚ"
"367640","outline","24","841286","43000","output","876","高校生の武田茂は戦国シミュレーションゲームにハマっていた。
あまりにも好きすぎて徹夜することもしばしばあり、この日も茂は徹夜でゲームをし、そのまま眠ってしまった。
茂が目覚めるとそこは自宅ではなく、なぜか森の中。
何かのイタズラと思いつつ、山中を彷徨っていると人と出会う。
しかしその人の服装は異常だった。
古くてボロい着物を着ており、明らかに現代日本人ではない。
話してみると言葉は一応通じるが、やはり現代日本語と異なっている。
ここはどこかと尋ねてみると、なんと甲斐の国だという。
治めているのは武田信玄で、戦国時代の真っただ中に転生してしまったことに茂のは気づくのだった。

茂は武田信玄が大好きで、ゲームでも武田信玄を選ぶことが多かった。
そういった経緯から茂は武田信玄率いる武田家を盛り立てていこうと考える。
しかし問題はどうやって武田家にツテを作るかだ。
今の茂はルームウェアを着た、ただの怪しい人間。
そこで茂は出会った村人に神隠しにあったと嘘の事情を話し、同情を引いて協力してもらおうと考える。
幸い村人はよい人だった為、茂に衣類を貸してくれたり、村に住めるよう手配をしてくれた。
茂はさらなる信用を得る為、村長の目につくような活躍をして信頼を得ようとする。

まず茂が考えたのは井戸だ。
現代日本だと蛇口をひねれば水道水が出てくるが、この時代は井戸や川から水を汲んでくるしかない。これはかなりの重労働だ。
そこで中学時代に技術の時間で習った水の手漕ぎ汲み取り機の開発に着手する。
一高校生であった茂がすぐに開発できるものでもなかったが、村人達が協力してくれたおかげで開発に成功する。
村人達は茂の衣服が普通ではなかったこと、話し方もキレイｄ"
"1541203","outline","4","184261","38000","output","1662","きつねのコン太は、父と母と3匹で、人けのない森で暮らしていた。
コン太は、両親のもとで、元気だった。
しかし、そのもり"
"115345","outline","4","218915","39000","output","1832","太郎は新人のプロレスラー。デビューから半年が経つが、まだまだ弱くて、一度も試合に勝利したことはない。そこで所属団体の会長から、次の試合はタッグチームで出場することを告げられた。それなら勝てるかもしれないということらしい。太郎は"
"5041386","outline","18","621247","35000","revision","1173","ここはネズミの国です。ネズミたちの仲間が平和にのびのび暮らしていました。
その国に、ネズミの少年チュウタがいました。チュウタは他のネズミより体が小さいことにコンプレックスを持っていましたが、友達に恵まれそれなりに楽しく暮らしていました。

しかしある時、ドラ猫のドーラが国にやってきて大暴れしました。
ネズミはドーラを恐れてしまい、誰も立ち向かいません。
やがてドーラはネズミたちを支配するようになりました。

ドーラの暴力に怯える日々。
ある日、チュウタは友達がドーラに襲われている現場に出くわしました。
「助けて」と訴える友達と震えるチュウタ「ぼくなんかじゃどうしようもない」……それでもチュウタは勇気を振り絞り、ドーラに立ち向かいます。

しかしチュウタの力ではやはりドーラにかないません。
ドーラの猛攻に「もうだめだ」と思ったとき、仲間のネズミの一匹がドーラに噛みつきます。

「頑張れチュウタ！みん"
"4415810","outline","10","434119","22000","output","1833","今日も都会の喧騒にうんざりとした彼は足取りも重く帰途についていた。
彼は眠る前にいつもの空想にふけっていました。
ああ、都会の煩わしい喧騒から離れて田舎で農業を営みたいと。
睡魔に負け、ふと目が覚めると、見たこともない場所にいた。
広大な自然が広がり、小さな集落が見えた。
なぜかもう、帰ることができないと理解できた。
そこに、通りがかる住民に挨拶をし、このあたりのことを聞くことにした。
どうも人手が足りない様子なので、住まわせてもうあ
"
"169251","outline","11","456174","42000","output","1947","チュウタは仲間のネズミ達を集めて演説を始めた。
「このままだと、人間やカラス達に命を奪われてしまう。もっと安心して暮らせる場所に移住しよう」
仲間のネズミ達のうち、長老格の数匹のネズミは命を落とす可能性のある旅への参加を拒否した。
チュウタが諦めずに何度も説得を繰り返していると、チュウタの熱意に負けて長老達は旅への参加を了承した。
仲間達と入念に計画を練りながら準備を進めていくチュウタたち。
準備の途中で、ネズミ狩の人間達に数匹の仲間が駆除されてしまうアクシデントがあったものの、無事に準備を完了させることが出来た。
移住の旅を開始して２０日を過ぎた頃に用意していた食料が夏場の高温多湿の影響で腐ってしまい、食料を失うトラブルが発生した。
チュウタたち"
"1034994","outline","17","637186","28000","planning","560","目を開けた瞬間、直哉は息を呑んだ。
頭上には、見たこともないほど青く澄んだ空。木々は高くそびえ、葉の間からこぼれる光は金色に輝いていた。
ここは、どこだ？
最後に覚えているのは、深夜まで残業して、帰宅途中に急な眠気に襲われたことだけ。

足音がした。振り返ると、そこには一人の少女が立っていた。
淡い銀色の髪に、湖のような瞳。背には、淡く光を放つ羽のようなものが揺れている。
「あなた……人間？」
少女の声は透き通っていたが、その瞳には警戒の色があった。

突然、矢が飛んできた。少女は瞬時に手をかざし、空中で矢は氷の結晶となって砕け散る。
「急いで！　精霊たちが狙われているの！」
そう告げると、彼女は駆け出した。直哉は訳も分からぬまま、その後を追った。

少女の名はリィナ。森に棲む精霊たちの守護者であり、人間の狩人たちから彼らを守っているという。
直哉は、彼女の真っ直ぐな信念に心を打たれ、共に旅をすることを決意する。

旅の道中、二人は獣人の村、地下に暮らすドワーフ、天空の浮島に住む翼人など、さまざまな種族と出会う。
しかしどの地にも、人間による精霊狩りの影が忍び寄っていた。
それぞれの種族には、戦わざるを得ない事情や深い悲しみがあった。

やがて二人は、精霊を狙う黒衣の男??「影喰い」と呼ばれる存在と対峙する。
彼は異世界の均衡を崩し、精霊の命を力に変えて世界を支配しようとしていた。
「直哉、お前は選べ。この世界を救うか、元の世界に戻るか」
影喰いの言葉は、直哉の胸を突き刺す。

戦いの果てに影喰いは倒れる。しかし、世界を救った後、精霊たちは彼に別れを告げる。
リィナは笑顔を浮かべたが、その瞳にはわずかな涙が光っていた。
「……あなたの世界にも、きっと守るべきものがあるでしょう？」

直哉は元の世界に戻ることを選んだ。
通勤電車の窓から見える景色は以前と変わらない。しかし、彼の心には異世界の森の風、仲間たちの笑い声、リィナの微笑みが残っていた。

その日から、彼は小さな優しさを積み重ねるようになった。道端の花を守り、困っている人に手を差し伸べ、日常の中で精霊のような存在を見つけ出す。
あの世界で学んだことは、今も確かに生きている。"
"769122","outline","18","633254","39000","output","919","黒猫のミーは元気な男の子。森の中で1人で過ごしていたけれど、そんな彼にもどうしても忘れられない出会いがありました。それが、子猫の頃に森にお花を摘みにやってきた女の子です。
その様子を木陰からじっと見守っていましたが、子猫の陰に気づいた女の子が優しく話しかけてくれました。その時に、子猫は「ミー」という名前をもらったのです。
女のことはそれきりだったものの、ミーは彼女の優しい笑顔をよく思い出していました。
やがて月日は流れ、ミーも立派な大人になります。狩りも上手になり、行動範囲も広がりました。そこでミーは、今度は自分から女の子に会いに行こうと思い立ちました。
あの時に女の子は、自分が森のはずれにある街に住んでいることを教えてくれたので、それほど距離は離れていないはず。自分の足でもきっと行けるはずです。
道中にはさまざまな困難がありましたが、ミーをよく知るうさぎやリス、鹿やキツネなどが手助けしてくれます。女の子を見たことがあるという情報もくれました。
やっとたどり着いた町は静かないいところです。自分と同じような猫も暮らしていて雰囲気もよさそう。彼らはとても気さくで、ミーの探している女の子のことも、どこに住んでいるかもすぐにわかりました。
ようやく、待ちに待った再会。女の子もミーのことをよく覚えており、あれきり会いに行けなくなったことが心残りだったようです。"
"5081515","outline","12","507475","40000","planning","1243","私の住んでいる場所は地面の上だった。暑い時も、寒い時も、ずっと一人だった。ごはんも置かれるだけで、一人で食べた。飲み水もずっと置きっぱなしで、時々水たまりも飲んだ。
ある時私は全然知らないところに連れて行ってもらえた。なんだか大きな施設だった。私の飼い主は私を置いて帰ってしまった。いつ迎えに来てくれるんだろうと待っていたら、なんだか知らない人が私を連れて行ってくれた。
新しいおうちは屋根があった。いつも誰かが一緒にいてくれる。知らないものがたくさんあって、なんだかすごく楽しかった。お水もいつも冷たくておいしかった。知らないところにもたくさん連れて行ってもらえて、沢山においを嗅いだり、景色を見たり、歩いて走って風を感じて、くたくたになるまで楽しいことがいっぱいだ。
なんだか"
"5302284","outline","7","302274","41000","output","867","ネズミのチュウタが七つの島を巡る冒険の物語がはじまります。一つの目の島で鹿のティコと出会い一緒に冒険に出るようになりました。２つ目の島では一つ目の鬼と死闘を交わして金色の輝く秘宝を手に入れました。３つ目の島でワシのミサンガと出会いました。冒険の話をして共感し一緒に旅に出かけました。４つめｎ"
"4101728","outline","7","320060","28000","planning","4694","キツネとタヌキの化かしあい
変化が苦手なタヌキがいました。
そなんなタヌキをいつも小馬鹿にしていたキツネがある日、どっちが多くの人間たちを驚かせられるか勝負しようと言ってきました。

タヌキは断ろうとしましたが、勝負に勝ったらタヌキが欲しいものを1つだけ絶対に叶えてあげるとキツネが言ったので、タヌキは勝負することに決めました。

"
"367640","outline","25","872527","28000","planning","1212","高校生の武田茂は戦国シミュレーションゲームにハマっていた。
あまりにも好きすぎて徹夜することもしばしばあり、この日も茂は徹夜でゲームをし、そのまま眠ってしまった。
茂が目覚めるとそこは自宅ではなく、なぜか森の中。
何かのイタズラと思いつつ、山中を彷徨っていると人と出会う。
しかしその人の服装は異常だった。
古くてボロい着物を着ており、明らかに現代日本人ではない。
話してみると言葉は一応通じるが、やはり現代日本語と異なっている。
ここはどこかと尋ねてみると、なんと甲斐の国だという。
治めているのは武田信玄で、戦国時代の真っただ中に転生してしまったことに茂のは気づくのだった。

茂は武田信玄が大好きで、ゲームでも武田信玄を選ぶことが多かった。
そういった経緯から茂は武田信玄率いる武田家を盛り立てていこうと考える。
しかし問題はどうやって武田家にツテを作るかだ。
今の茂はルームウェアを着た、ただの怪しい人間。
そこで茂は出会った村人に神隠しにあったと嘘の事情を話し、同情を引いて協力してもらおうと考える。
幸い村人はよい人だった為、茂に衣類を貸してくれたり、村に住めるよう手配をしてくれた。
茂はさらなる信用を得る為、村長の目につくような活躍をして信頼を得ようとする。

まず茂が考えたのは井戸だ。
現代日本だと蛇口をひねれば水道水が出てくるが、この時代は井戸や川から水を汲んでくるしかない。これはかなりの重労働だ。
そこで中学時代に技術の時間で習った水の手漕ぎ汲み取り機の開発に着手する。
一高校生であった茂がすぐに開発できるものでもなかったが、村人達が協力してくれたおかげで開発に成功する。
村人達は茂の衣服が普通ではなかったこと、話し方も自分達とは異なっていて高貴な生まれの人間だと感じて協力してくれたのだ。
"
"81949","outline","6","224753","36000","planning","1539","進学校に通っている高校三年の悟は、最近なぜ勉強しているのか、人生とは一体何なのか、答えが見つからず悩んでいた。
その日は朝から暑く、午後2時過ぎには38℃超え、夜の11時を過ぎても30℃を切るかどうかの暑さで、蒸し暑さもあり"
"5144214","outline","15","567175","41000","output","1706","太郎は、どこにでもいるような平凡なサラリーマンだった。
太郎は、いつも通り仕事を終え、いつものスーパーに寄った後、家に帰った。
家に帰った太郎は、玄関の前に、送り主不明の身に覚えのないに荷物が届いていることに気づいた。
宛先を確認すると、自分あてだったので、不思議に思いながらも、太郎は荷物を部屋の中に運んで、中身を空けてみることにした。
中身を空けると、そこにはロボットが入っていた。
スイッチを押すと、ロボットが起動し、「私はAIロボットです。これからあなたの生活を手助けします。どんなことでも相談してください。」と言った。
それから、太郎は、そのロボットと一緒に生活した。
ロボットは、とても頼りがいがあって、太郎はかなり助けられていた。
おかげで太郎は、仕事でも成功し、大きく祖腐心することができた。
また、プライベートでも素敵な女性と出会い、結婚し、幸せな家庭を築くこともできた。
そうやって、順風満帆な生活を太郎は送っていた。
20年後、AIロボットのおかげでかなり太郎は、仕事でAIロボットを開発し、それを過去に送り込む技術を開発した。"
"1610899","outline","15","570936","41000","planning","2605","　ある日、人間の家の中で、体の線が細くて柔らかい、真っ白な蜘蛛が生まれました。その白蜘蛛は、暑い冬も寒い冬も、台風の日も、大雪の日も、人間の家の中で快適に暮らしていました。
　ある日、人間の家の外から、黒蜘蛛が家の中に入ってきました。その黒蜘蛛は、体の線が太くて硬く、真っ黒な蜘蛛です。そして黒蜘蛛は白蜘蛛と出会いました。黒蜘蛛は、白蜘蛛の体の線の細さと柔らかさに見とれてしまいました。白蜘蛛もまた、黒蜘蛛の体の線の太さと固さに見とれてしまいました。二匹の蜘蛛は、互いに惹かれ合い、すぐに意気投合して仲良くなりました。互いの生活の様子を話しているうちに、お互いの生活に憧れを抱くようになり、巣を交換してしばらく生活してみないかという話になり、互いの巣を交換してみることにしました。白蜘蛛は家の外の黒蜘蛛の巣に、黒蜘蛛は家の中の白蜘蛛の巣に住むことになりました。
　二匹は互いの巣を交換して、"
"2592945","outline","14","496953","39000","output","1161","コウタは今日も灼熱の道路工事の仕事に精を出していた。決して望んで就いた仕事ではない。学生の頃から勉強嫌いで就職先を選べなかったからだ。コウタには幼馴染の友達がいた。その名はシゲオ。シゲオは小学校から誰よりも勉強が得意で常に皆の注目を浴びていた。彼の今の仕事はやり手のプログラマーだ。仕事が休みのある日、コウタはシゲオから久しぶりに会おうと声をかけられ、仕事場に出向いた。するとそこにはクリーンで快適な理想の空間が広がっていた。自分にできるか分からないがオレもこんな恵まれた環境で仕事がしたい。そう思ったコウタは一念発起し、独学でプログラミングの勉強を始めた。無謀な挑戦にもみえたが、コウタは数学の知識ほぼゼロの状態であるにも関わらず、好きなパズルゲーム感覚でみるみるとプログラミングの腕を磨き続けていｔ"
"115345","outline","5","254733","32000","output","1790","太郎は新人のプロレスラー。デビューから半年が経つが、まだまだ弱くて、一度も試合に勝利したことはない。そこで所属団体の会長から、次の試合はタッグチームで出場することを告げられた。それなら勝てるかもしれないということらしい。試合でタッグを組む相手は、新人の次郎だ。次郎もまだ一度も試合にかてｚ"
"1541203","outline","5","226754","35000","output","4216","きつねのコン太は、父と母と3匹で、人けのない森で暮らしていた。
コン太は、両親のもとで、元気だった。
しかし、その森では、徐々に食べ物がなくなっていった。
そんな中、コン太の"
"5041386","outline","19","660551","36000","output","1634","ここはネズミの国です。ネズミたちの仲間が平和にのびのび暮らしていました。
その国に、ネズミの少年チュウタがいました。チュウタは他のネズミより体が小さいことにコンプレックスを持っていましたが、友達に恵まれそれなりに楽しく暮らしていました。

しかしある時、ドラ猫のドーラが国にやってきて大暴れしました。
ネズミはドーラを恐れてしまい、誰も立ち向かいません。
やがてドーラはネズミたちを支配するようになりました。

ドーラの暴力に怯える日々。
ある日、チュウタは友達がドーラに襲われている現場に出くわしました。
「助けて」と訴える友達と震えるチュウタ「ぼくなんかじゃどうしようもない」……それでもチュウタは勇気を振り絞り、ドーラに立ち向かいます。

しかしチュウタの力ではやはりドーラにかないません。
ドーラの猛攻に「もうだめだ」と思ったとき、「もうお前の思い通りにはさせない」そういって"
"1034994","outline","18","670866","30000","planning","474","目を開けた瞬間、直哉は息を呑んだ。
頭上には、見たこともないほど青く澄んだ空。木々は高くそびえ、葉の間からこぼれる光は金色に輝いていた。
ここは、どこだ？
最後に覚えているのは、深夜まで残業して、帰宅途中に急な眠気に襲われたことだけ。

足音がした。振り返ると、そこには一人の少女が立っていた。
淡い銀色の髪に、湖のような瞳。背には、淡く光を放つ羽のようなものが揺れている。
「あなた……人間？」
少女の声は透き通っていたが、その瞳には警戒の色があった。

突然、矢が飛んできた。少女は瞬時に手をかざし、空中で矢は氷の結晶となって砕け散る。
「急いで！　精霊たちが狙われているの！」
そう告げると、彼女は駆け出した。直哉は訳も分からぬまま、その後を追った。

少女の名はリィナ。森に棲む精霊たちの守護者であり、人間の狩人たちから彼らを守っているという。
直哉は、彼女の真っ直ぐな信念に心を打たれ、共に旅をすることを決意する。

旅の道中、二人は獣人の村、地下に暮らすドワーフ、天空の浮島に住む翼人など、さまざまな種族と出会う。
しかしどの地にも、人間による精霊狩りの影が忍び寄っていた。
それぞれの種族には、戦わざるを得ない事情や深い悲しみがあった。

やがて二人は、精霊を狙う黒衣の男??「影喰い」と呼ばれる存在と対峙する。
彼は異世界の均衡を崩し、精霊の命を力に変えて世界を支配しようとしていた。
「直哉、お前は選べ。この世界を救うか、元の世界に戻るか」
影喰いの言葉は、直哉の胸を突き刺す。

戦いの果てに影喰いは倒れる。しかし、世界を救った後、精霊たちは彼に別れを告げる。
リィナは笑顔を浮かべたが、その瞳にはわずかな涙が光っていた。
「……あなたの世界にも、きっと守るべきものがあるでしょう？」

直哉は元の世界に戻ることを選んだ。
通勤電車の窓から見える景色は以前と変わらない。しかし、彼の心には異世界の森の風、仲間たちの笑い声、リィナの微笑みが残っていた。

その日から、彼は小さな優しさを積み重ねるようになった。道端の花を守り、困っている人に手を差し伸べ、日常の中で精霊のような存在を見つけ出す。
あの世界で学んだことは、今も確かに生きている。"
"5302284","outline","8","326001","21000","planning","543","ネズミのチュウタが七つの島を巡る冒険の物語がはじまります。一つの目の島で鹿のティコと出会い一緒に冒険に出るようになりました。２つ目の島では一つ目の鬼と死闘を交わして金色の輝く秘宝を手に入れました。３つ目の島でワシのミサンガと出会いました。冒険の話をして共感し一緒に旅に出かけました。４つ目の島で"
"4415810","outline","11","474964","37000","planning","1667","今日も都会の喧騒にうんざりとした彼は足取りも重く帰途についていた。
彼は眠る前にいつもの空想にふけっていました。
ああ、都会の煩わしい喧騒から離れて田舎で農業を営みたいと。
睡魔に負け、ふと目が覚めると、見たこともない場所にいた。
広大な自然が広がり、小さな集落が見えた。
なぜかもう、帰ることができないと理解できた。
そこに、通りがかる住民に挨拶をし、このあたりのことを聞くことにした。
どうも人手が足りない様子なので、住まわせてもうら間は農業の手伝いをすることになった。

"
"367640","outline","26","893910","18000","planning","1282","高校生の武田茂は戦国シミュレーションゲームにハマっていた。
あまりにも好きすぎて徹夜することもしばしばあり、この日も茂は徹夜でゲームをし、そのまま眠ってしまった。
茂が目覚めるとそこは自宅ではなく、なぜか森の中。
何かのイタズラと思いつつ、山中を彷徨っていると人と出会う。
しかしその人の服装は異常だった。
古くてボロい着物を着ており、明らかに現代日本人ではない。
話してみると言葉は一応通じるが、やはり現代日本語と異なっている。
ここはどこかと尋ねてみると、なんと甲斐の国だという。
治めているのは武田信玄で、戦国時代の真っただ中に転生してしまったことに茂のは気づくのだった。

茂は武田信玄が大好きで、ゲームでも武田信玄を選ぶことが多かった。
そういった経緯から茂は武田信玄率いる武田家を盛り立てていこうと考える。
しかし問題はどうやって武田家にツテを作るかだ。
今の茂はルームウェアを着た、ただの怪しい人間。
そこで茂は出会った村人に神隠しにあったと嘘の事情を話し、同情を引いて協力してもらおうと考える。
幸い村人はよい人だった為、茂に衣類を貸してくれたり、村に住めるよう手配をしてくれた。
茂はさらなる信用を得る為、村長の目につくような活躍をして信頼を得ようとする。

まず茂が考えたのは井戸だ。
現代日本だと蛇口をひねれば水道水が出てくるが、この時代は井戸や川から水を汲んでくるしかない。これはかなりの重労働だ。
そこで中学時代に技術の時間で習った水の手漕ぎ汲み取り機の開発に着手する。
一高校生であった茂がすぐに開発できるものでもなかったが、村人達が手助けしてくれたおかげで開発に成功する。
村人達は茂の衣服が普通ではなかったこと、話し方も自分達とは異なっていて高貴な生まれの人間だと感じて協力してくれたのだ。
"
"1610899","outline","16","592098","18000","output","2218","　ある日、人間の家の中で、体の線が細くて柔らかい、真っ白な蜘蛛が生まれました。その白蜘蛛は、暑い冬も寒い冬も、台風の日も、大雪の日も、人間の家の中で快適に暮らしていました。
　ある日、人間の家の外から、黒蜘蛛が家の中に入ってきました。その黒蜘蛛は、体の線が太くて硬く、真っ黒な蜘蛛です。そして黒蜘蛛は白蜘蛛と出会いました。黒蜘蛛は、白蜘蛛の体の線の細さと柔らかさに見とれてしまいました。白蜘蛛もまた、黒蜘蛛の体の線の太さと固さに見とれてしまいました。二匹の蜘蛛は、互いに惹かれ合い、すぐに意気投合して仲良くなりました。互いの生活の様子を話しているうちに、お互いの生活に憧れを抱くようになり、巣を交換してしばらく生活してみないかという話になり、互いの巣を交換してみることにしました。白蜘蛛は家の外の黒蜘蛛の巣に、黒蜘蛛は家の中の白蜘蛛の巣に住むことになりました。
　二匹は互いの巣を交換して、しばらく生活してみましたが、白蜘蛛は、"
"81949","outline","7","250018","22000","output","1334","進学校に通っている高校三年の悟は、最近なぜ勉強しているのか、人生とは一体何なのか、答えが見つからず悩んでいた。
その日は朝から暑く、午後2時過ぎには38℃超え、夜の11時を過ぎても30℃を切るかどうかの暑さで、蒸し暑さもあり悟が寝たのはようやく夜中"
"169251","outline","12","499938","41000","output","1305","チュウタは仲間のネズミ達を集めて演説を始めた。
「このままだと、人間やカラス達に命を奪われてしまう。もっと安心して暮らせる場所に移住しよう」
仲間のネズミ達のうち、長老格の数匹のネズミは命を落とす可能性のある旅への参加を拒否した。
チュウタが諦めずに何度も説得を繰り返していると、チュウタの熱意に負けて長老達は旅への参加を了承した。
仲間達と入念に計画を練りながら準備を進めていくチュウタたち。
準備の途中で、ネズミ狩の人間達に数匹の仲間が駆除されてしまうアクシデントがあったものの、無事に準備を完了させることが出来た。
移住の旅を開始して２０日を過ぎた頃に用意していた食料が夏場の高温多湿の影響で腐ってしまい、食料を失うトラブルが発生した。
チュウタ達は食料を現地調達しながら、懸命に移住の旅を続けた。
ちゅうたたち"
"4101728","outline","8","351965","27000","planning","1752","キツネとタヌキの化かしあい
変化が苦手なタヌキがいました。
そなんなタヌキをいつも小馬鹿にしていたキツネがある日、どっちが多くの人間たちを驚かせられるか勝負しようと言ってきました。

タヌキは断ろうとしましたが、勝負に勝ったらタヌキが欲しいものを1つだけ絶対に叶えてあげるとキツネが言ったので、タヌキは勝負することに決めました。

驚かすこと

"
"769122","outline","19","673062","37000","revision","768","黒猫のミーは元気な男の子。森の中で1人で過ごしていたけれど、そんな彼にもどうしても忘れられない出会いがありました。それが、子猫の頃に森にお花を摘みにやってきた女の子です。
その様子を木陰からじっと見守っていましたが、子猫の陰に気づいた女の子が優しく話しかけてくれました。その時に、子猫は「ミー」という名前をもらったのです。
女のことはそれきりだったものの、ミーは彼女の優しい笑顔をよく思い出していました。
やがて月日は流れ、ミーも立派な大人になります。狩りも上手になり、行動範囲も広がりました。そこでミーは、今度は自分から女の子に会いに行こうと思い立ちました。
あの時に女の子は、自分が森のはずれにある街に住んでいることを教えてくれたので、それほど距離は離れていないはず。自分の足でもきっと行けるはずです。
道中にはさまざまな困難がありましたが、ミーをよく知るうさぎやリス、鹿やキツネなどが手助けしてくれます。女の子を見たことがあるという情報もくれました。
やっとたどり着いた町は静かないいところです。自分と同じような猫も暮らしていて雰囲気もよさそう。彼らはとても気さくで、ミーの探している女の子のことも、どこに住んでいるかもすぐにわかりました。
ようやく、待ちに待った再会。女の子もミーのことをよく覚えており、体調を崩してあれきり会いに行けなくなったことが心残りだったようです。
女の子はミーを家族に「この子は私の友達」だと紹介し、みー"
"5144214","outline","16","600462","29000","output","2148","太郎は、どこにでもいるような平凡なサラリーマンだった。
太郎は、いつも通り仕事を終え、いつものスーパーに寄った後、家に帰った。
家に帰った太郎は、玄関の前に、送り主不明の身に覚えのないに荷物が届いていることに気づいた。
宛先を確認すると、自分あてだったので、不思議に思いながらも、太郎は荷物を部屋の中に運んで、中身を空けてみることにした。
中身を空けると、そこにはロボットが入っていた。
スイッチを押すと、ロボットが起動し、「私はAIロボットです。これからあなたの生活を手助けします。どんなことでも相談してください。」と言った。
それから、太郎は、そのロボットと一緒に生活した。
ロボットは、とても頼りがいがあって、太郎はかなり助けられていた。
おかげで太郎は、仕事でも成功し、大きく祖腐心することができた。
また、プライベートでも素敵な女性と出会い、結婚し、幸せな家庭を築くこともできた。
そうやって、順風満帆な生活を太郎は送っていた。
20年後、AIロボットのおかげでかなり賢くなっていた太郎は、仕事でAIロボットを開発し、それを過去に送り込む技術を開発した。
太郎は、そうだ"
"2592945","outline","15","525411","25000","planning","2432","コウタは今日も灼熱の道路工事の仕事に精を出していた。決して望んで就いた仕事ではない。学生の頃から勉強嫌いで就職先を選べなかったからだ。コウタには幼馴染の友達がいた。その名はシゲオ。シゲオは小学校から誰よりも勉強が得意で常に皆の注目を浴びていた。彼の今の仕事はやり手のプログラマーだ。仕事が休みのある日、コウタはシゲオから久しぶりに会おうと声をかけられ、仕事場に出向いた。するとそこにはクリーンで快適な理想の空間が広がっていた。自分にできるか分からないがオレもこんな恵まれた環境で仕事がしたい。そう思ったコウタは一念発起し、独学でプログラミングの勉強を始めた。無謀な挑戦にもみえたが、コウタは数学の知識ほぼゼロの状態であるにも関わらず、好きなパズルゲーム感覚でみるみるとプログラミングの腕を磨き続けていった。その様子をみたシゲオは「おい、コウタ、お前すごいよ！」"
"5081515","outline","13","555160","44000","output","1600","私の住んでいる場所は地面の上だった。暑い時も、寒い時も、ずっと一人だった。ごはんも置かれるだけで、一人で食べた。飲み水もずっと置きっぱなしで、時々水たまりも飲んだ。
ある時私は全然知らないところに連れて行ってもらえた。なんだか大きな施設だった。私の飼い主は私を置いて帰ってしまった。いつ迎えに来てくれるんだろうと待っていたら、なんだか知らない人が私を連れて行ってくれた。
新しいおうちは屋根があった。いつも誰かが一緒にいてくれる。知らないものがたくさんあって、なんだかすごく楽しかった。お水もいつも冷たくておいしかった。知らないところにもたくさん連れて行ってもらえて、沢山においを嗅いだり、景色を見たり、歩いて走って風を感じて、くたくたになるまで楽しいことがいっぱいだ。
毎日ふかふかなお布団で寝れる。寝ていたら、前に私を飼っていた人と"
"1541203","outline","6","252636","22000","output","1715","きつねのコン太は、父と母と3匹で、人けのない森で暮らしていた。
コン太は、両親のもとで、元気だった。
しかし、その森では、徐々に食べ物がなくなっていった。
そんな中、コン太のお父さんは、病気になり、死んでしまった。
"
"4415810","outline","12","497904","20000","planning","1421","今日も都会の喧騒にうんざりとした彼は足取りも重く帰途についていた。
彼は眠る前にいつもの空想にふけっていました。
ああ、都会の煩わしい喧騒から離れて田舎で農業を営みたいと。
睡魔に負け、ふと目が覚めると、見たこともない場所にいた。
広大な自然が広がり、小さな集落が見えた。
なぜかもう、帰ることができないと理解できた。
そこに、通りがかる住民に挨拶をし、このあたりのことを聞くことにした。
どうも人手が足りない様子なので、住まわせてもうら間は農業の手伝いをすることになる。

"
"5302284","outline","9","353077","24000","output","969","ネズミのチュウタが七つの島を巡る冒険の物語がはじまります。一つの目の島で鹿のティコと出会い一緒に冒険に出るようになりました。２つ目の島では一つ目の鬼と死闘を交わして金色の輝く秘宝を手に入れました。３つ目の島でワシのミサンガと出会いました。冒険の話をして共感し一緒に旅に出かけました。４つ目の島でイノシシの群れから"
"5041386","outline","20","694727","31000","output","1549","ここはネズミの国です。ネズミたちの仲間が平和にのびのび暮らしていました。
その国に、ネズミの少年チュウタがいました。チュウタは他のネズミより体が小さいことにコンプレックスを持っていましたが、友達に恵まれそれなりに楽しく暮らしていました。

しかしある時、ドラ猫のドーラが国にやってきて大暴れしました。
ネズミはドーラを恐れてしまい、誰も立ち向かいません。
やがてドーラはネズミたちを支配するようになりました。

ドーラの暴力に怯える日々。
ある日、チュウタは友達がドーラに襲われている現場に出くわしました。
「助けて」と訴える友達と震えるチュウタ「ぼくなんかじゃどうしようもない」……それでもチュウタは勇気を振り絞り、ドーラに立ち向かいます。

しかしチュウタの力ではやはりドーラにかないません。
ドーラの猛攻に「もうだめだ」と思ったとき、「もうお前の思い通りにはさせない」そう言って仲間の一匹が駆けつけました。

「お前如きになにができる」とあざ"
"4101728","outline","9","377204","20000","planning","2396","キツネとタヌキの化かしあい
変化が苦手なタヌキがいました。
そなんなタヌキをいつも小馬鹿にしていたキツネがある日、どっちが多くの人間たちを驚かせられるか勝負しようと言ってきました。

タヌキは断ろうとしましたが、勝負に勝ったらタヌキが欲しいものを1つだけ絶対に叶えてあげるとキツネが言ったので、タヌキは勝負することに決めました。

勝負の日までタヌキは驚かすこと

"
"81949","outline","8","279251","26000","output","2420","進学校に通っている高校三年の悟は、最近なぜ勉強しているのか、人生とは一体何なのか、答えが見つからず悩んでいた。
その日は朝から暑く、午後2時過ぎには38℃超え、夜の11時を過ぎても30℃を切るかどうかの暑さで、蒸し暑さもあったせいか悟がとこに寝たのはようやく夜中の2時過ぎだった。"
"1034994","outline","19","705525","31000","output","654","目を開けた瞬間、直哉は息を呑んだ。
頭上には、見たこともないほど青く澄んだ空。木々は高くそびえ、葉の間からこぼれる光は金色に輝いていた。
ここは、どこだ？
最後に覚えているのは、深夜まで残業して、帰宅途中に急な眠気に襲われたことだけ。

足音がした。振り返ると、そこには一人の少女が立っていた。
淡い銀色の髪に、湖のような瞳。背には、淡く光を放つ羽のようなものが揺れている。
「あなた……人間？」
少女の声は透き通っていたが、その瞳には警戒の色があった。

突然、矢が飛んできた。少女は瞬時に手をかざし、空中で矢は氷の結晶となって砕け散る。
「急いで！　精霊たちが狙われているの！」
そう告げると、彼女は駆け出した。直哉は訳も分からぬまま、その後を追った。

少女の名はリィナ。森に棲む精霊たちの守護者であり、人間の狩人たちから彼らを守っているという。
直哉は、彼女の真っ直ぐな信念に心を打たれ、共に旅をすることを決意する。

旅の道中、二人は獣人の村、地下に暮らすドワーフ、天空の浮島に住む翼人など、さまざまな種族と出会う。
しかしどの地にも、人間による精霊狩りの影が忍び寄っていた。
それぞれの種族には、戦わざるを得ない事情や深い悲しみがあった。

やがて二人は、精霊を狙う黒衣の男??「影喰い」と呼ばれる存在と対峙する。
彼は異世界の均衡を崩し、精霊の命を力に変えて世界を支配しようとしていた。
「直哉、お前は選べ。この世界を救うか、元の世界に戻るか」
影喰いの言葉は、直哉の胸を突き刺す。

戦いの果てに影喰いは倒れる。しかし、世界を救った後、精霊たちは彼に別れを告げる。
リィナは笑顔を浮かべたが、その瞳にはわずかな涙が光っていた。
「……あなたの世界にも、きっと守るべきものがあるでしょう？」

直哉は元の世界に戻ることを選んだ。
通勤電車の窓から見える景色は以前と変わらない。しかし、彼の心には異世界の森の風、仲間たちの笑い声、リィナの微笑みが残っていた。

その日から、彼は小さな優しさを積み重ねるようになった。道端の花を守り、困っている人に手を差し伸べ、日常の中で精霊のような存在を見つけ出す。
あの世界で学んだことは、今も確かに生きている。"
"115345","outline","6","299247","41000","output","1882","太郎は新人のプロレスラー。デビューから半年が経つが、まだまだ弱くて、一度も試合に勝利したことはない。そこで所属団体の会長から、次の試合はタッグチームで出場することを告げられた。それなら勝てるかもしれないということらしい。会長から紹介されたあいては、新人の次郎だ。次郎もまだ一度も試合に勝てず悩んでいるようだ。"
"2592945","outline","16","545724","17000","output","1184","コウタは今日も灼熱の道路工事の仕事に精を出していた。決して望んで就いた仕事ではない。学生の頃から勉強嫌いで就職先を選べなかったからだ。コウタには幼馴染の友達がいた。その名はシゲオ。シゲオは小学校から誰よりも勉強が得意で常に皆の注目を浴びていた。彼の今の仕事はやり手のプログラマーだ。仕事が休みのある日、コウタはシゲオから久しぶりに会おうと声をかけられ、仕事場に出向いた。するとそこにはクリーンで快適な理想の空間が広がっていた。自分にできるか分からないがオレもこんな恵まれた環境で仕事がしたい。そう思ったコウタは一念発起し、独学でプログラミングの勉強を始めた。無謀な挑戦にもみえたが、コウタは数学の知識ほぼゼロの状態であるにも関わらず、好きなパズルゲーム感覚でみるみるとプログラミングの腕を磨き続けていった。その様子をみたシゲオは「おい、コウタ、お前すごいよ！俺と一緒に会社」"
"5144214","outline","17","622622","18000","output","1396","太郎は、どこにでもいるような平凡なサラリーマンだった。
太郎は、いつも通り仕事を終え、いつものスーパーに寄った後、家に帰った。
家に帰った太郎は、玄関の前に、送り主不明の身に覚えのないに荷物が届いていることに気づいた。
宛先を確認すると、自分あてだったので、不思議に思いながらも、太郎は荷物を部屋の中に運んで、中身を空けてみることにした。
中身を空けると、そこにはロボットが入っていた。
スイッチを押すと、ロボットが起動し、「私はAIロボットです。これからあなたの生活を手助けします。どんなことでも相談してください。」と言った。
それから、太郎は、そのロボットと一緒に生活した。
ロボットは、とても頼りがいがあって、太郎はかなり助けられていた。
おかげで太郎は、仕事でも成功し、大きく祖腐心することができた。
また、プライベートでも素敵な女性と出会い、結婚し、幸せな家庭を築くこともできた。
そうやって、順風満帆な生活を太郎は送っていた。
20年後、AIロボットのおかげでかなり賢くなっていた太郎は、仕事でAIロボットを開発し、それを過去に送り込む技術を開発した。
そして太郎は思いついた。
「これを過去の自分に送れば、」"
"769122","outline","20","700814","25000","output","1112","黒猫のミーは元気な男の子。森の中で1人で過ごしていたけれど、そんな彼にもどうしても忘れられない出会いがありました。それが、子猫の頃に森にお花を摘みにやってきた女の子です。
その様子を木陰からじっと見守っていましたが、子猫の陰に気づいた女の子が優しく話しかけてくれました。その時に、子猫は「ミー」という名前をもらったのです。
女のことはそれきりだったものの、ミーは彼女の優しい笑顔をよく思い出していました。
やがて月日は流れ、ミーも立派な大人になります。狩りも上手になり、行動範囲も広がりました。そこでミーは、今度は自分から女の子に会いに行こうと思い立ちました。
あの時に女の子は、自分が森のはずれにある街に住んでいることを教えてくれたので、それほど距離は離れていないはず。自分の足でもきっと行けるはずです。
道中にはさまざまな困難がありましたが、ミーをよく知るうさぎやリス、鹿やキツネなどが手助けしてくれます。女の子を見たことがあるという情報もくれました。
やっとたどり着いた町は静かないいところです。自分と同じような猫も暮らしていて雰囲気もよさそう。彼らはとても気さくで、ミーの探している女の子のことも、どこに住んでいるかもすぐにわかりました。
ようやく、待ちに待った再会。女の子もミーのことをよく覚えており、体調を崩してあれきり会いに行けなくなったことが心残りだったようです。
女の子はミーを家族に「この子は私の友達」だと紹介し、独りぼっちだったミーもとっても嬉しい気持ちになります。たくさんｈ"
"1610899","outline","17","628439","33000","output","2316","　ある日、人間の家の中で、体の線が細くて柔らかい、真っ白な蜘蛛が生まれました。その白蜘蛛は、暑い冬も寒い冬も、台風の日も、大雪の日も、人間の家の中で快適に暮らしていました。
　ある日の夏、人間の家の外から、黒蜘蛛が家の中に入ってきました。その黒蜘蛛は、体の線が太くて硬く、真っ黒な蜘蛛です。そして黒蜘蛛は白蜘蛛と出会いました。黒蜘蛛は、白蜘蛛の体の線の細さと柔らかさに見とれてしまいました。白蜘蛛もまた、黒蜘蛛の体の線の太さと固さに見とれてしまいました。二匹の蜘蛛は、互いに惹かれ合い、すぐに意気投合して仲良くなりました。互いの生活の様子を話しているうちに、お互いの生活に憧れを抱くようになり、巣を交換してしばらく生活してみないかという話になり、互いの巣を交換してみることにしました。白蜘蛛は家の外の黒蜘蛛の巣に、黒蜘蛛は家の中の白蜘蛛の巣に住むことになりました。
　二匹は互いの巣を交換して、しばらく生活してみましたが、白蜘蛛は外の猛烈な暑さに"
"4415810","outline","13","519954","19000","output","1250","今日も都会の喧騒にうんざりとした彼は足取りも重く帰途についていた。
彼は眠る前にいつもの空想にふけっていました。
ああ、都会の煩わしい喧騒から離れて田舎で農業を営みたいと。
睡魔に負け、ふと目が覚めると、見たこともない場所にいた。
広大な自然が広がり、小さな集落が見えた。
なぜかもう、帰ることができないと理解できた。
そこに、通りがかる住民に挨拶をし、このあたりのことを聞くことにした。
どうも人手が足りない様子なので、住まわせてもうら間は農業の手伝いをすることになる。
周りの住民ともうちと
"
"169251","outline","13","540312","37000","planning","1319","チュウタは仲間のネズミ達を集めて演説を始めた。
「このままだと、人間やカラス達に命を奪われてしまう。もっと安心して暮らせる場所に移住しよう」
仲間のネズミ達のうち、長老格の数匹のネズミは命を落とす可能性のある旅への参加を拒否した。
チュウタが諦めずに何度も説得を繰り返していると、チュウタの熱意に負けて長老達は旅への参加を了承した。
仲間達と入念に計画を練りながら準備を進めていくチュウタたち。
準備の途中で、ネズミ狩の人間達に数匹の仲間が駆除されてしまうアクシデントがあったものの、無事に準備を完了させることが出来た。
移住の旅を開始して２０日を過ぎた頃に用意していた食料が夏場の高温多湿の影響で腐ってしまい、食料を失うトラブルが発生した。
チュウタ達は食料を現地調達しながら、懸命に移住の旅を続けた。
チュウタの仲間のネズミ達が毎日のように餓死していくさ"
"367640","outline","27","940382","44000","output","1236","高校生の武田茂は戦国シミュレーションゲームにハマっていた。
あまりにも好きすぎて徹夜することもしばしばあり、この日も茂は徹夜でゲームをし、そのまま眠ってしまった。
茂が目覚めるとそこは自宅ではなく、なぜか森の中。
何かのイタズラと思いつつ、山中を彷徨っていると人と出会う。
しかしその人の服装は異常だった。
古くてボロい着物を着ており、明らかに現代日本人ではない。
話してみると言葉は一応通じるが、やはり現代日本語と異なっている。
ここはどこかと尋ねてみると、なんと甲斐の国だという。
治めているのは武田信玄で、戦国時代の真っただ中に転生してしまったことに茂のは気づくのだった。

茂は武田信玄が大好きで、ゲームでも武田信玄を選ぶことが多かった。
そういった経緯から茂は武田信玄率いる武田家を盛り立てていこうと考える。
しかし問題はどうやって武田家にツテを作るかだ。
今の茂はルームウェアを着た、ただの怪しい人間。
そこで茂は出会った村人に神隠しにあったと嘘の事情を話し、同情を引いて協力してもらおうと考える。
幸い村人はよい人だった為、茂に衣類を貸してくれたり、村に住めるよう手配をしてくれた。
茂はさらなる信用を得る為、村長の目につくような活躍をして信頼を得ようとする。

まず茂が考えたのは井戸だ。
現代日本だと蛇口をひねれば水道水が出てくるが、この時代は井戸や川から水を汲んでくるしかない。これはかなりの重労働だ。
そこで中学時代に技術の時間で習った水の手漕ぎ汲み取り機の開発に着手する。
一高校生であった茂がすぐに開発できるものでもなかったが、村人達が手助けしてくれたおかげで開発に成功する。
村人達は茂の衣服が普通ではなかったこと、話し方も自分達とは異なっていることから高貴な生まれの人間だと感じて協力してくれたのだ。

試しに使ってみると、村人達はその効果に驚愕する。

"
"1541203","outline","7","284720","28000","output","1785","きつねのコン太は、父と母と3匹で、人けのない森で暮らしていた。
コン太は、両親のもとで、元気だった。
しかし、その森では、徐々に食べ物がなくなっていった。
そんな中、コン太のお父さんは、病気になり、死んでしまった。
コン太は、お父さんがいなくなり悲しんで"
"4101728","outline","10","396996","16000","other","1520","キツネとタヌキの化かしあい
変化が苦手なタヌキがいました。
そなんなタヌキをいつも小馬鹿にしていたキツネがある日、どっちが多くの人間たちを驚かせられるか勝負しようと言ってきました。

タヌキは断ろうとしましたが、勝負に勝ったらタヌキが欲しいものを1つだけ絶対に叶えてあげるとキツネが言ったので、タヌキは勝負することに決めました。

勝負の日までタヌキは驚かすことについて考えました。



"
"5081515","outline","14","594246","34000","planning","2074","私の住んでいる場所は地面の上だった。暑い時も、寒い時も、ずっと一人だった。ごはんも置かれるだけで、一人で食べた。飲み水もずっと置きっぱなしで、時々水たまりも飲んだ。
ある時私は全然知らないところに連れて行ってもらえた。なんだか大きな施設だった。私の飼い主は私を置いて帰ってしまった。いつ迎えに来てくれるんだろうと待っていたら、なんだか知らない人が私を連れて行ってくれた。
新しいおうちは屋根があった。いつも誰かが一緒にいてくれる。知らないものがたくさんあって、なんだかすごく楽しかった。お水もいつも冷たくておいしかった。知らないところにもたくさん連れて行ってもらえて、沢山においを嗅いだり、景色を見たり、歩いて走って風を感じて、くたくたになるまで楽しいことがいっぱいだ。
毎日ふかふかなお布団で寝れる。寝ていたら、前に私を飼っていた人とその時の私が見えた。わたしのかお"
"5144214","outline","18","646382","19000","planning","2245","太郎は、どこにでもいるような平凡なサラリーマンだった。
太郎は、いつも通り仕事を終え、いつものスーパーに寄った後、家に帰った。
家に帰った太郎は、玄関の前に、送り主不明の身に覚えのないに荷物が届いていることに気づいた。
宛先を確認すると、自分あてだったので、不思議に思いながらも、太郎は荷物を部屋の中に運んで、中身を空けてみることにした。
中身を空けると、そこにはロボットが入っていた。
スイッチを押すと、ロボットが起動し、「私はAIロボットです。これからあなたの生活を手助けします。どんなことでも相談してください。」と言った。
それから、太郎は、そのロボットと一緒に生活した。
ロボットは、とても頼りがいがあって、太郎はかなり助けられていた。
おかげで太郎は、仕事でも成功し、大きく祖腐心することができた。
また、プライベートでも素敵な女性と出会い、結婚し、幸せな家庭を築くこともできた。
そうやって、順風満帆な生活を太郎は送っていた。
20年後、AIロボットのおかげでかなり賢くなっていた太郎は、仕事でAIロボットを開発し、それを過去に送り込む技術を開発した。
そして太郎は思いついた。
「これを過去の自分に送れば、自分はもっと天才になれるのではないか？」"
"1610899","outline","18","656799","24000","output","2784","　ある日、人間の家の中で、体の線が細くて柔らかい、真っ白な蜘蛛が生まれました。その白蜘蛛は、暑い冬も寒い冬も、台風の日も、大雪の日も、人間の家の中で快適に暮らしていました。
　ある日の夏、人間の家の外から、黒蜘蛛が家の中に入ってきました。その黒蜘蛛は、体の線が太くて硬く、真っ黒な蜘蛛です。そして黒蜘蛛は白蜘蛛と出会いました。黒蜘蛛は、白蜘蛛の体の線の細さと柔らかさに見とれてしまいました。白蜘蛛もまた、黒蜘蛛の体の線の太さと固さに見とれてしまいました。二匹の蜘蛛は、互いに惹かれ合い、すぐに意気投合して仲良くなりました。互いの生活の様子を話しているうちに、お互いの生活に憧れを抱くようになり、巣を交換してしばらく生活してみないかという話になり、互いの巣を交換してみることにしました。白蜘蛛は家の外の黒蜘蛛の巣に、黒蜘蛛は家の中の白蜘蛛の巣に住むことになりました。
　二匹は互いの巣を交換して、しばらく生活してみましたが、白蜘蛛は外の猛烈な暑さに、夏バテしてしまいました。黒蜘蛛は、人間の家の中のエアコン"
"1034994","outline","20","740413","32000","revision","1198","目を開けた瞬間、直哉は息を呑んだ。
頭上には、見たこともないほど青く澄んだ空。木々は高くそびえ、葉の間からこぼれる光は金色に輝いていた。
ここは、どこだ？
最後に覚えているのは、深夜まで残業して、帰宅途中に急な眠気に襲われたことだけ。

足音がした。振り返ると、そこには一人の少女が立っていた。
淡い銀色の髪に、湖のような瞳。背には、淡く光を放つ羽のようなものが揺れている。
「あなた……人間？」
少女の声は透き通っていたが、その瞳には警戒の色があった。

突然、矢が飛んできた。少女は瞬時に手をかざし、空中で矢は氷の結晶となって砕け散る。
「急いで！　精霊たちが狙われているの！」
そう告げると、彼女は駆け出した。直哉は訳も分からぬまま、その後を追った。

少女の名はリィナ。森に棲む精霊たちの守護者であり、人間の狩人たちから彼らを守っているという。
直哉は、彼女の真っ直ぐな信念に心を打たれ、共に旅をすることを決意する。

旅の道中、二人は獣人の村、地下に暮らすドワーフ、天空の浮島に住む翼人など、さまざまな種族と出会う。
しかしどの地にも、人間による精霊狩りの影が忍び寄っていた。
それぞれの種族には、戦わざるを得ない事情や深い悲しみがあった。

やがて二人は、精霊を狙う黒衣の男??「影喰い」と呼ばれる存在と対峙する。
彼は異世界の均衡を崩し、精霊の命を力に変えて世界を支配しようとしていた。
「直哉、お前は選べ。この世界を救うか、元の世界に戻るか」
影喰いの言葉は、直哉の胸を突き刺す。

戦いの果てに影喰いは倒れる。しかし、世界を救った後、精霊たちは彼に別れを告げる。
リィナは笑顔を浮かべたが、その瞳にはわずかな涙が光っていた。
「……あなたの世界にも、きっと守るべきものがあるでしょう？」

直哉は元の世界に戻ることを選んだ。
通勤電車の窓から見える景色は以前と変わらない。しかし、彼の心には異世界の森の風、仲間たちの笑い声、リィナの微笑みが残っていた。

その日から、彼は小さな優しさを積み重ねるようになった。道端の花を守り、困っている人に手を差し伸べ、日常の中で精霊のような存在を見つけ出す。
あの世界で学んだことは、今も確かに生きている。"
"769122","outline","21","733926","30000","revision","1056","黒猫のミーは元気な男の子。森の中で1人で過ごしていたけれど、そんな彼にもどうしても忘れられない出会いがありました。それが、子猫の頃に森にお花を摘みにやってきた女の子です。
その様子を木陰からじっと見守っていましたが、子猫の陰に気づいた女の子が優しく話しかけてくれました。その時に、子猫は「ミー」という名前をもらったのです。
女のことはそれきりだったものの、ミーは彼女の優しい笑顔をよく思い出していました。
やがて月日は流れ、ミーも立派な大人になります。狩りも上手になり、行動範囲も広がりました。そこでミーは、今度は自分から女の子に会いに行こうと思い立ちました。
あの時に女の子は、自分が森のはずれにある街に住んでいることを教えてくれたので、それほど距離は離れていないはず。自分の足でもきっと行けるはずです。
道中にはさまざまな困難がありましたが、ミーをよく知るうさぎやリス、鹿やキツネなどが手助けしてくれます。女の子を見たことがあるという情報もくれました。
やっとたどり着いた町は静かないいところです。自分と同じような猫も暮らしていて雰囲気もよさそう。彼らはとても気さくで、ミーの探している女の子のことも、どこに住んでいるかもすぐにわかりました。
ようやく、待ちに待った再会。女の子もミーのことをよく覚えており、体調を崩してあれきり会いに行けなくなったことが心残りだったようです。
女の子はミーを家族に「この子は私の友達」だと紹介し、独りぼっちだったミーもとっても嬉しい気持ちになります。たくさん話したり遊んでいるうちに離れたくないという気持ちも強くなります。
そろそろ森に帰らなければと思い始めた頃、"
"5302284","outline","10","398837","43000","planning","721","ネズミのチュウタが七つの島を巡る冒険の物語がはじまります。一つの目の島で鹿のティコと出会い一緒に冒険に出るようになりました。２つ目の島では一つ目の鬼と死闘を交わして金色の輝く秘宝を手に入れました。３つ目の島でワシのミサンガと出会いました。冒険の話をして共感し一緒に旅に出かけました。４つ目の島でイノシシの群れから逃げながら２つ目の青い秘宝を手に入れました。"
"5041386","outline","21","736159","38000","output","1161","ここはネズミの国です。ネズミたちの仲間が平和にのびのび暮らしていました。
その国に、ネズミの少年チュウタがいました。チュウタは他のネズミより体が小さいことにコンプレックスを持っていましたが、友達に恵まれそれなりに楽しく暮らしていました。

しかしある時、ドラ猫のドーラが国にやってきて大暴れしました。
ネズミはドーラを恐れてしまい、誰も立ち向かいません。
やがてドーラはネズミたちを支配するようになりました。

ドーラの暴力に怯える日々。
ある日、チュウタは友達がドーラに襲われている現場に出くわしました。
「助けて」と訴える友達と震えるチュウタ「ぼくなんかじゃどうしようもない」……それでもチュウタは勇気を振り絞り、ドーラに立ち向かいます。

しかしチュウタの力ではやはりドーラにかないません。
ドーラの猛攻に「もうだめだ」と思ったとき、「もうお前の思い通りにはさせない」そう言って仲間の一匹が駆けつけました。

「お前如きになにができる」とあざ笑うドーラ。
しかし見ればたくさんのネズミが集まっていました。
「友達のために戦うチュウタを"
"367640","outline","28","967014","24000","output","929","高校生の武田茂は戦国シミュレーションゲームにハマっていた。
あまりにも好きすぎて徹夜することもしばしばあり、この日も茂は徹夜でゲームをし、そのまま眠ってしまった。
茂が目覚めるとそこは自宅ではなく、なぜか森の中。
何かのイタズラと思いつつ、山中を彷徨っていると人と出会う。
しかしその人の服装は異常だった。
古くてボロい着物を着ており、明らかに現代日本人ではない。
話してみると言葉は一応通じるが、やはり現代日本語と異なっている。
ここはどこかと尋ねてみると、なんと甲斐の国だという。
治めているのは武田信玄で、戦国時代の真っただ中に転生してしまったことに茂のは気づくのだった。

茂は武田信玄が大好きで、ゲームでも武田信玄を選ぶことが多かった。
そういった経緯から茂は武田信玄率いる武田家を盛り立てていこうと考える。
しかし問題はどうやって武田家にツテを作るかだ。
今の茂はルームウェアを着た、ただの怪しい人間。
そこで茂は出会った村人に神隠しにあったと嘘の事情を話し、同情を引いて協力してもらおうと考える。
幸い村人はよい人だった為、茂に衣類を貸してくれたり、村に住めるよう手配をしてくれた。
茂はさらなる信用を得る為、村長の目につくような活躍をして信頼を得ようとする。

まず茂が考えたのは井戸だ。
現代日本だと蛇口をひねれば水道水が出てくるが、この時代は井戸や川から水を汲んでくるしかない。これはかなりの重労働だ。
そこで中学時代に技術の時間で習った水の手漕ぎ汲み取り機の開発に着手する。
一高校生であった茂がすぐに開発できるものでもなかったが、村人達が手助けしてくれたおかげで開発に成功する。
村人達は茂の衣服が普通ではなかったこと、話し方も自分達とは異なっていることから高貴な生まれの人間だと感じて協力してくれたのだ。

試しに使ってみると、村人達はその効果に驚愕する。
大した力を入れずとも、て"
"81949","outline","9","323487","41000","planning","1860","進学校に通っている高校三年の悟は、最近なぜ勉強しているのか、人生とは一体何なのか、答えが見つからず悩んでいた。
その日は朝から暑く、午後2時過ぎには38℃超え、夜の11時を過ぎても30℃を切るかどうかの暑さで、蒸し暑さもあったせいか悟が眠りについたのはようやく夜中も2時を過ぎた頃だった。
"
"4101728","outline","11","422243","22000","revision","1638","キツネとタヌキの化かしあい
変化が苦手なタヌキがいました。
そなんなタヌキをいつも小馬鹿にしていたキツネがある日、どっちが多くの人間たちを驚かせられるか勝負しようと言ってきました。

