success,trial_type,trial_index,time_elapsed,internal_node_id,ID,condition,StartTime,EndTime,task,view_history,rt,response,outline_text,writing_txt,writing_duration_rt,pre_writing_pause,stimulus
1,preload,0,22,0.0-0.0,5924178,outline,2025/8/8 11:32,2025/8/8 11:52,NULL,NULL,NULL,NULL,NULL,NULL,NULL,NULL,NULL
1,fullscreen,1,4570,0.0-1.0,5924178,outline,2025/8/8 11:32,2025/8/8 11:52,FullScreen,NULL,NULL,NULL,NULL,NULL,NULL,NULL,NULL
NULL,instructions,2,150264,0.0-2.0,5924178,outline,2025/8/8 11:32,2025/8/8 11:52,outline_inst_tl,Array,145693,NULL,NULL,NULL,NULL,NULL,NULL
NULL,survey-html-form,3,630266,0.0-3.0,5924178,outline,2025/8/8 11:32,2025/8/8 11:52,outline_task,NULL,NULL,Array,"人見知りで恥ずかしがり屋の太郎君ははじめてのおつかいに行く
初めて一人で外に出て、人に話しかけなければいけない経験をする
人見知りから成長する",NULL,NULL,NULL,NULL
NULL,instructions,4,673440,0.0-4.0,5924178,outline,2025/8/8 11:32,2025/8/8 11:52,main_task_inst_tl,Array,43173,NULL,NULL,NULL,NULL,NULL,NULL
NULL,html-keyboard-response,5,1170264,0.0-5.0,5924178,outline,2025/8/8 11:32,2025/8/8 11:52,writing_block,NULL,NULL,NULL,NULL,"太郎はお母さんに一人でスーパーに行ってりんごをに買ってきてと頼まれた。
それは、5歳の太郎の初めてのお使いだった。
人見知りで恥ずかしがり屋の太郎は一人でおつかいができるか不安だったが、大好きなお母さんのため、おつかいに行く事を決意する。
お母さんからお金を受け取り家を出た太郎、しかし、しばらく進むと初めてのおつかいの緊張のせいか、いつも行っているスーパーへの道がわからなくなってしまった。
周りは比較的人通りが多く、道を尋ねる事もできるが、人見知りの太郎は知らない人に声を掛ける事がなかなかできない。
しかし、このままでは大好きなお母さんに頼まれたお使いを達成する事ができない。
太郎は意を決して通りかかった大人に声をかけ、スーパーへの道を聞くことができた。
無事、スーパーにたどり着いた太郎。
目当てのりんごを探し始めるが見つからない。
人見知りの太郎は忙しそうに働いている店員にりんごの場所を聞く事がなかなかできない。
しかし、お母さんのため、そう思うと勇気が湧いてきた太郎は店員にりんごの場所を聞く事ができた。
そして、太郎はりんごをレジに持っていき精算を済ませた。
無事にりんごを手に入れて帰路につく太郎は、家を出る前の人見知りで恥ずかしがり屋の太郎から一皮剥けた男になっていた。",496823,1995,NULL
NULL,html-keyboard-response,6,1173383,0.0-6.0,5924178,outline,2025/8/8 11:32,2025/8/8 11:52,debrief,NULL,3118, ,NULL,NULL,NULL,NULL,<p style='text-algin:left'>これで実験は終了です。お疲れ様でした。</p><p style='text-algin:left'>スペースキーを押して、謝金の支払いに関わる最後の質問に移行してください。</p>
1,preload,0,4,0.0-0.0,1451340,outline,2025/8/8 11:33,2025/8/8 11:53,NULL,NULL,NULL,NULL,NULL,NULL,NULL,NULL,NULL
1,fullscreen,1,4763,0.0-1.0,1451340,outline,2025/8/8 11:33,2025/8/8 11:53,FullScreen,NULL,NULL,NULL,NULL,NULL,NULL,NULL,NULL
NULL,instructions,2,99602,0.0-2.0,1451340,outline,2025/8/8 11:33,2025/8/8 11:53,outline_inst_tl,Array,94840,NULL,NULL,NULL,NULL,NULL,NULL
NULL,survey-html-form,3,579603,0.0-3.0,1451340,outline,2025/8/8 11:33,2025/8/8 11:53,outline_task,NULL,NULL,Array,"川の中に一匹の真っ黒い鯉がいたが、みんなほどきれいではないことに悩んでいた。
ある日、川が増水しみんなとはぐれ違う場所に来てしまう。
その場所では違う種類の魚や生き物と会い違う価値感を学ぶ。
また同じ自分と似たメスと知り合い愛し合うようになり幸せに暮らす。",NULL,NULL,NULL,NULL
NULL,instructions,4,633805,0.0-4.0,1451340,outline,2025/8/8 11:33,2025/8/8 11:53,main_task_inst_tl,Array,54201,NULL,NULL,NULL,NULL,NULL,NULL
NULL,html-keyboard-response,5,1210236,0.0-5.0,1451340,outline,2025/8/8 11:33,2025/8/8 11:53,writing_block,NULL,NULL,NULL,NULL,"ある川の中に一匹の真っ黒い鯉が住んでいたが、周りの鯉たちはとてもきれいな柄をしており、それをみた黒い鯉は悩んでいた。
ある日、大雨が何日も降り注ぎ、住んでいた川があふれかえり黒い鯉は流されてしまった。
目が覚めたら全く知らない場所に来ており戸惑っていたが、あるドジョウが声をかけてきた。とても楽しくおしゃべりしたり遊んだり、違う生き物たちと触れ合う中で黒い鯉は固くなっていた心がしだいにやわらかくなっていった。

そんな中、自分と似たようなメスと恋に落ちその場所でずっと幸せに暮らした。",576431,5475,NULL
NULL,html-keyboard-response,6,1212948,0.0-6.0,1451340,outline,2025/8/8 11:33,2025/8/8 11:53,debrief,NULL,2712, ,NULL,NULL,NULL,NULL,<p style='text-algin:left'>これで実験は終了です。お疲れ様でした。</p><p style='text-algin:left'>スペースキーを押して、謝金の支払いに関わる最後の質問に移行してください。</p>
1,preload,0,11,0.0-0.0,6169624,outline,2025/8/8 11:31,2025/8/8 11:53,NULL,NULL,NULL,NULL,NULL,NULL,NULL,NULL,NULL
1,fullscreen,1,2584,0.0-1.0,6169624,outline,2025/8/8 11:31,2025/8/8 11:53,FullScreen,NULL,NULL,NULL,NULL,NULL,NULL,NULL,NULL
NULL,instructions,2,22232,0.0-2.0,6169624,outline,2025/8/8 11:31,2025/8/8 11:53,outline_inst_tl,Array,19647,NULL,NULL,NULL,NULL,NULL,NULL
NULL,survey-html-form,3,502236,0.0-3.0,6169624,outline,2025/8/8 11:31,2025/8/8 11:53,outline_task,NULL,NULL,Array,"＜人はなぜつまらないスポーツに関心を示すのか？＞
・サッカーがどうしても好きになれない少年は、ビックネームで名を馳せたプロサッカー選手を揶揄することが日常的になってしまった。
・これは嫉妬というより、生活圏に自然と馴染まない嫌なシチュエーションであることが考えられ、ベストな選択肢が何かが理解できない環境に陥ってしまった。
・嫌いなものを観なくて済む世界が訪れれば幸せであること間違いなしなのだが、人生はそう上手くは行かないと言える。
・美的センスに欠けるサッカーの情報は、マスコミの稚拙なスポーツニュースを見ればすぐに理解できるであろう
・意味のない情報ばかりを国民に押し付け、スポーツを好きにならなければおかしいと考える連中は、将来的には罰が当たると言える
・人間らしく生きる上で大切なことは、世の中に振り回されることなく、自分自身で好きなものに囲まれて生きていくことが大事だと言える",NULL,NULL,NULL,NULL
NULL,instructions,4,531554,0.0-4.0,6169624,outline,2025/8/8 11:31,2025/8/8 11:53,main_task_inst_tl,Array,29316,NULL,NULL,NULL,NULL,NULL,NULL
NULL,html-keyboard-response,5,1295017,0.0-5.0,6169624,outline,2025/8/8 11:31,2025/8/8 11:53,writing_block,NULL,NULL,NULL,NULL,"＜人はなぜつまらないと初めからわかっているスポーツに関心を示してしまうのか？＞

サッカーが嫌いだということは、実は賢いという人間であれば堅実な内容であると言えます。世の中はとにかく汚いビジネスに侵されており、鬱陶しさが否めないというのが実情です。
またこういった偏向傾向を生んだのは、金儲けに目がくらんだマスコミそのものであり、嫌いなものをとことん見たくない人間を破滅させることはみじんも理解していないと考えられます。
それから美的センスに欠ける内容は、自分自身で排除して欠航であり、稚拙なスポーツニュースは一切見聞きしないというのが賢い人が行うべき行動なのです。同時に世の中に振り回されることを防ぐには、自分自身で好きなものを優先させて自ら生きるということが大事になってきます。
人間らしく生きるには、人間自身が自らを証明しなければなりません。
これこそ、人生の本当の面白さなのです。",763461,6044,NULL
NULL,html-keyboard-response,6,1297383,0.0-6.0,6169624,outline,2025/8/8 11:31,2025/8/8 11:53,debrief,NULL,2365, ,NULL,NULL,NULL,NULL,<p style='text-algin:left'>これで実験は終了です。お疲れ様でした。</p><p style='text-algin:left'>スペースキーを押して、謝金の支払いに関わる最後の質問に移行してください。</p>
1,preload,0,5,0.0-0.0,4415810,outline,2025/8/8 11:35,2025/8/8 11:57,NULL,NULL,NULL,NULL,NULL,NULL,NULL,NULL,NULL
1,fullscreen,1,7250,0.0-1.0,4415810,outline,2025/8/8 11:35,2025/8/8 11:57,FullScreen,NULL,NULL,NULL,NULL,NULL,NULL,NULL,NULL
NULL,instructions,2,107227,0.0-2.0,4415810,outline,2025/8/8 11:35,2025/8/8 11:57,outline_inst_tl,Array,99977,NULL,NULL,NULL,NULL,NULL,NULL
NULL,survey-html-form,3,587229,0.0-3.0,4415810,outline,2025/8/8 11:35,2025/8/8 11:57,outline_task,NULL,NULL,Array,"都会の喧騒に疲れた社会人がいました。
田舎で農業を営みたいと考えていた。
疲れて眠りにつくと、見たこともない田舎にいた。
帰れなくなった彼は、田舎に住む決心をした。
周りの人たちと馴染み、協力してもらい農業を始める。
初めての収穫を住民と祝い、熱い感情が込み上げてきた。
ここに住み農業を営むことが自分のこれからの人生と考えて、住民とともに歩もうと決心した。
",NULL,NULL,NULL,NULL
NULL,instructions,4,642697,0.0-4.0,4415810,outline,2025/8/8 11:35,2025/8/8 11:57,main_task_inst_tl,Array,55468,NULL,NULL,NULL,NULL,NULL,NULL
NULL,html-keyboard-response,5,1301231,0.0-5.0,4415810,outline,2025/8/8 11:35,2025/8/8 11:57,writing_block,NULL,NULL,NULL,NULL,"今日も都会の喧騒にうんざりとした彼は足取りも重く帰途についていた。
彼は眠る前にいつもの空想にふけっていました。
ああ、都会の煩わしい喧騒から離れて田舎で農業を営みたいと。
睡魔に負け、ふと目が覚めると、見たこともない場所にいた。
広大な自然が広がり、小さな集落が見えた。
なぜかもう、帰ることができないと理解できた。
そこに、通りがかる住民に挨拶をし、このあたりのことを聞くことにした。
どうも人手が足りない様子なので、住まわせてもうら間は農業の手伝いをすることになる。
周りの住民とも打ち解け、初めての収穫までに漕ぎつくことができたのです。
そのときに、目から熱い物が流れ、ああ、ここで生きていきたいと自然と思えるようになったのです。
",658533,5068,NULL
NULL,html-keyboard-response,6,1303492,0.0-6.0,4415810,outline,2025/8/8 11:35,2025/8/8 11:57,debrief,NULL,2261, ,NULL,NULL,NULL,NULL,<p style='text-algin:left'>これで実験は終了です。お疲れ様でした。</p><p style='text-algin:left'>スペースキーを押して、謝金の支払いに関わる最後の質問に移行してください。</p>
1,preload,0,6,0.0-0.0,5144214,outline,2025/8/8 11:33,2025/8/8 11:58,NULL,NULL,NULL,NULL,NULL,NULL,NULL,NULL,NULL
1,fullscreen,1,6592,0.0-1.0,5144214,outline,2025/8/8 11:33,2025/8/8 11:58,FullScreen,NULL,NULL,NULL,NULL,NULL,NULL,NULL,NULL
NULL,instructions,2,132809,0.0-2.0,5144214,outline,2025/8/8 11:33,2025/8/8 11:58,outline_inst_tl,Array,126216,NULL,NULL,NULL,NULL,NULL,NULL
NULL,survey-html-form,3,612810,0.0-3.0,5144214,outline,2025/8/8 11:33,2025/8/8 11:58,outline_task,NULL,NULL,Array,"・太郎は平凡なサラリーマンだった。
・ある日、自宅に身に覚えのない荷物が届く。
・中を開けると、AIロボットが入っていた。
・そのAIロボットは、太郎にいろいろとアドバイスしてくれたり味方してくれた。
・おかげで、太郎は、仕事でも成功し、素敵な女性とも出会い、結婚して幸せな生活を送っていた。
・20年後、太郎は、ノーベル賞を取るくらい成長しており、AIロボットを開発し、過去に送り込む技術を発明した。
・そして、その技術を使って、過去の自分あてに、AIロボットを送った。
・荷物の送り主は、未来の太郎だったのだ。",NULL,NULL,NULL,NULL
NULL,instructions,4,677432,0.0-4.0,5144214,outline,2025/8/8 11:33,2025/8/8 11:58,main_task_inst_tl,Array,64620,NULL,NULL,NULL,NULL,NULL,NULL
NULL,html-keyboard-response,5,1514671,0.0-5.0,5144214,outline,2025/8/8 11:33,2025/8/8 11:58,writing_block,NULL,NULL,NULL,NULL,"太郎は、どこにでもいるような平凡なサラリーマンだった。
太郎は、いつも通り仕事を終え、いつものスーパーに寄った後、家に帰った。
家に帰った太郎は、玄関の前に、送り主不明の身に覚えのないに荷物が届いていることに気づいた。
宛先を確認すると、自分あてだったので、不思議に思いながらも、太郎は荷物を部屋の中に運んで、中身を空けてみることにした。
中身を空けると、そこにはロボットが入っていた。
スイッチを押すと、ロボットが起動し、「私はAIロボットです。これからあなたの生活を手助けします。どんなことでも相談してください。」と言った。
それから、太郎は、そのロボットと一緒に生活した。
ロボットは、とても頼りがいがあって、実際太郎はかなり助けられていた。
おかげで太郎は、仕事でも成功し、大きく昇進することができた。
また、プライベートでも素敵な女性と出会い、結婚し、幸せな家庭を築くことができた。
そうやって、順風満帆な生活を太郎は送っていった。
20年後、かなり賢くなっていた太郎は、仕事でAIロボットを開発し、それを過去に送り込む技術を開発した。
そして太郎は思いついた。
「これを過去の自分に送れば、自分は天才になれるのではないか？」
そして、太郎はひそかにこの計画を実行した。
そう、荷物の送り主は、未来の太郎自身だったのである。",837238,4039,NULL
NULL,html-keyboard-response,6,1518508,0.0-6.0,5144214,outline,2025/8/8 11:33,2025/8/8 11:58,debrief,NULL,3837, ,NULL,NULL,NULL,NULL,<p style='text-algin:left'>これで実験は終了です。お疲れ様でした。</p><p style='text-algin:left'>スペースキーを押して、謝金の支払いに関わる最後の質問に移行してください。</p>
1,preload,0,4,0.0-0.0,367640,outline,2025/8/8 11:30,2025/8/8 11:59,NULL,NULL,NULL,NULL,NULL,NULL,NULL,NULL,NULL
1,fullscreen,1,2428,0.0-1.0,367640,outline,2025/8/8 11:30,2025/8/8 11:59,FullScreen,NULL,NULL,NULL,NULL,NULL,NULL,NULL,NULL
NULL,instructions,2,41147,0.0-2.0,367640,outline,2025/8/8 11:30,2025/8/8 11:59,outline_inst_tl,Array,38718,NULL,NULL,NULL,NULL,NULL,NULL
NULL,survey-html-form,3,521181,0.0-3.0,367640,outline,2025/8/8 11:30,2025/8/8 11:59,outline_task,NULL,NULL,Array,"現代日本の高校生が戦国時代に転生。
主人公は戦国シミュレーションにハマり、戦国時代が大好きになる。
そんなある日、徹夜でゲームをしていると意識を失い、目覚めると周りは森の中。
実はここは戦国時代のとある地域で、戦国時代に転生してしまった。
出会った村人に尋ねると、どうやら甲斐の大名武田信玄の領地にいるとのこと。
武田信玄大好きだった主人公は武田家を盛り立てるべく、その力を発揮していく。

",NULL,NULL,NULL,NULL
NULL,instructions,4,545195,0.0-4.0,367640,outline,2025/8/8 11:30,2025/8/8 11:59,main_task_inst_tl,Array,24013,NULL,NULL,NULL,NULL,NULL,NULL
NULL,html-keyboard-response,5,1746197,0.0-5.0,367640,outline,2025/8/8 11:30,2025/8/8 11:59,writing_block,NULL,NULL,NULL,NULL,"高校生の武田茂は戦国シミュレーションゲームにハマっていた。
あまりにも好きすぎて徹夜することもしばしばあり、この日も茂は徹夜でゲームをし、そのまま眠ってしまった。
茂が目覚めるとそこは自宅ではなく、なぜか森の中。
何かのイタズラと思いつつ、山中を彷徨っていると人と出会う。
しかしその人の服装は異常だった。
古くてボロい着物を着ており、明らかに現代日本人ではない。
話してみると言葉は一応通じるが、やはり現代日本語と異なっている。
ここはどこかと尋ねてみると、なんと甲斐の国だという。
治めているのは武田信玄で、戦国時代の真っただ中に転生してしまったことに茂のは気づくのだった。

茂は武田信玄が大好きで、ゲームでも武田信玄を選ぶことが多かった。
そういった経緯から茂は武田信玄率いる武田家を盛り立てていこうと考える。
しかし問題はどうやって武田家にツテを作るかだ。
今の茂はルームウェアを着た、ただの怪しい人間。
そこで茂は出会った村人に神隠しにあったと嘘の事情を話し、同情を引いて協力してもらおうと考える。
幸い村人はよい人だった為、茂に衣類を貸してくれたり、村に住めるよう手配をしてくれた。
茂はさらなる信用を得る為、村長の目につくような活躍をして信頼を得ようとする。

まず茂が考えたのは井戸だ。
現代日本だと蛇口をひねれば水道水が出てくるが、この時代は井戸や川から水を汲んでくるしかない。これはかなりの重労働だ。
そこで中学時代に技術の時間で習った水の手漕ぎ汲み取り機の開発に着手する。
一高校生であった茂がすぐに開発できるものでもなかったが、村人達が手助けしてくれたおかげで開発に成功する。
村人達は茂の衣服が普通ではなかったこと、話し方も自分達とは異なっていることから高貴な生まれの人間だと感じて協力してくれたのだ。

試しに使ってみると、村人達はその効果に驚愕する。
手漕ぎ汲み取り機の棒を上下するだけで、水が出てくるのだ。
こんな便利な道具は見たことがないと村中で大騒ぎとなり、村長の目にもとまる。
こうして茂は村中から注目されるようになる。

次に茂が取り組もうとしたのは千歯扱きだ。
米の収穫は大変だったが、もっと大変だったのはその後。
手作業の為、効率は悪く時間もかかってしまう。
そこで千歯扱きの開発に取り組もうとする。
こちらもしげｒ",1201001,5750,NULL
NULL,html-keyboard-response,6,1749149,0.0-6.0,367640,outline,2025/8/8 11:30,2025/8/8 11:59,debrief,NULL,2951, ,NULL,NULL,NULL,NULL,<p style='text-algin:left'>これで実験は終了です。お疲れ様でした。</p><p style='text-algin:left'>スペースキーを押して、謝金の支払いに関わる最後の質問に移行してください。</p>
1,preload,0,17,0.0-0.0,1610899,outline,2025/8/8 11:32,2025/8/8 12:00,NULL,NULL,NULL,NULL,NULL,NULL,NULL,NULL,NULL
1,fullscreen,1,3917,0.0-1.0,1610899,outline,2025/8/8 11:32,2025/8/8 12:00,FullScreen,NULL,NULL,NULL,NULL,NULL,NULL,NULL,NULL
NULL,instructions,2,198531,0.0-2.0,1610899,outline,2025/8/8 11:32,2025/8/8 12:00,outline_inst_tl,Array,194614,NULL,NULL,NULL,NULL,NULL,NULL
NULL,survey-html-form,3,678533,0.0-3.0,1610899,outline,2025/8/8 11:32,2025/8/8 12:00,outline_task,NULL,NULL,Array,"・とある人間の家の中で、生まれた白蜘蛛がいた。
・その白蜘蛛は、体の線が細く、体も柔らかい感じである。
・白蜘蛛は、人間の家の中で、暑い夏も寒い冬も快適に暮らしていた。
・ある日、家の外から体が線が太く固い黒蜘蛛が家の中に入って来た。
・黒蜘蛛と白蜘蛛は、初めて出会う。
・黒蜘蛛は白蜘蛛の体と生活ぶりに憧れる。
・白蜘蛛は黒蜘蛛の体と生活ぶりに憧れる。
・二匹は話し合い、互いの巣を交換することで、白蜘蛛は家の外で、黒蜘蛛は家の中で生活することにした。
・しかし二匹とも、いつもとは違う生活環境に苦しむことになる。
・二匹は話し合い、互いの巣を再び交換し、元の生活に戻ることになった。
・自分が経験したことのない生活にあこがれるが、結局は、いつもの暮らしが一番快適のようだ。",NULL,NULL,NULL,NULL
NULL,instructions,4,737282,0.0-4.0,1610899,outline,2025/8/8 11:32,2025/8/8 12:00,main_task_inst_tl,Array,58748,NULL,NULL,NULL,NULL,NULL,NULL
NULL,html-keyboard-response,5,1675706,0.0-5.0,1610899,outline,2025/8/8 11:32,2025/8/8 12:00,writing_block,NULL,NULL,NULL,NULL,"　ある日、人間の家の中で、体の線が細くて柔らかい、真っ白な蜘蛛が生まれました。その白蜘蛛は、暑い冬も寒い冬も、台風の日も、大雪の日も、人間の家の中で快適に暮らしていました。
　ある日の夏、人間の家の外から、黒蜘蛛が家の中に入ってきました。その黒蜘蛛は、体の線が太くて硬く、真っ黒な蜘蛛です。そして黒蜘蛛は白蜘蛛と出会いました。黒蜘蛛は、白蜘蛛の体の線の細さと柔らかさに見とれてしまいました。白蜘蛛もまた、黒蜘蛛の体の線の太さと固さに見とれてしまいました。二匹の蜘蛛は、互いに惹かれ合い、すぐに意気投合して仲良くなりました。互いの生活の様子を話しているうちに、お互いの生活に憧れを抱くようになり、巣を交換してしばらく生活してみないかという話になり、互いの巣を交換してみることにしました。白蜘蛛は人間の家の外の黒蜘蛛の巣に、黒蜘蛛は人間の家の中の白蜘蛛の巣に住むことになりました。
　二匹は互いの巣を交換して、しばらく生活してみましたが、白蜘蛛は外の猛烈な暑さに、夏バテしてしまいました。黒蜘蛛は、人間の家の中の冷房とサーキュレーターの寒さで体調を崩してしまいました。
　二匹は互いに、元の生活に戻りたくなり、再び互いの巣を戻すことにしました。二匹ともに、別の生活に憧れるが、やっぱり住み慣れたところが一番だよねと笑い合って、元の巣に戻っていきましたとさ。",938423,8563,NULL
NULL,html-keyboard-response,6,1678837,0.0-6.0,1610899,outline,2025/8/8 11:32,2025/8/8 12:00,debrief,NULL,3131, ,NULL,NULL,NULL,NULL,<p style='text-algin:left'>これで実験は終了です。お疲れ様でした。</p><p style='text-algin:left'>スペースキーを押して、謝金の支払いに関わる最後の質問に移行してください。</p>
1,preload,0,4,0.0-0.0,5041386,outline,2025/8/8 11:33,2025/8/8 12:00,NULL,NULL,NULL,NULL,NULL,NULL,NULL,NULL,NULL
1,fullscreen,1,3691,0.0-1.0,5041386,outline,2025/8/8 11:33,2025/8/8 12:00,FullScreen,NULL,NULL,NULL,NULL,NULL,NULL,NULL,NULL
NULL,instructions,2,59404,0.0-2.0,5041386,outline,2025/8/8 11:33,2025/8/8 12:00,outline_inst_tl,Array,55712,NULL,NULL,NULL,NULL,NULL,NULL
NULL,survey-html-form,3,539406,0.0-3.0,5041386,outline,2025/8/8 11:33,2025/8/8 12:00,outline_task,NULL,NULL,Array,"ネズミのチュウタは自分の身体が小さいことを悩んでおり、町のボスであるドラ猫にいつもいじめられていた。
被害者はチュウタ以外にもいたが、みんな体が小さくてドラ猫にはかなわない。
ある日、チュウタの友達がドラ猫にいじめられていた。
チュウタはいじめられている友達を助けにドラ猫に挑むが歯が立たない。
チュウタがドラ猫と戦っている姿を見た他のネズミたちは、その姿に感化されてチュウタに加勢する。
仲間がどんどん集まり、力を合わせた結果、ドラ猫を倒すことができた。
以降、チュウタは仲間と力を合わせて平和な生活を続けている。
",NULL,NULL,NULL,NULL
NULL,instructions,4,605756,0.0-4.0,5041386,outline,2025/8/8 11:33,2025/8/8 12:00,main_task_inst_tl,Array,66348,NULL,NULL,NULL,NULL,NULL,NULL
NULL,html-keyboard-response,5,1617948,0.0-5.0,5041386,outline,2025/8/8 11:33,2025/8/8 12:00,writing_block,NULL,NULL,NULL,NULL,"ここはネズミの国です。ネズミたちの仲間が平和にのびのび暮らしていました。
その国に、ネズミの少年チュウタがいました。チュウタは他のネズミより体が小さいことにコンプレックスを持っていましたが、友達に恵まれそれなりに楽しく暮らしていました。

しかしある時、ドラ猫のドーラが国にやってきて大暴れしました。
ネズミはドーラを恐れてしまい、誰も立ち向かいません。
やがてドーラはネズミたちを支配するようになりました。

ドーラの暴力に怯える日々。
ある日、チュウタは友達がドーラに襲われている現場に出くわしました。
「助けて」と訴える友達と震えるチュウタ「ぼくなんかじゃどうしようもない」……それでもチュウタは友達が気づけられていることが許せなく、勇気を振り絞り、ドーラに立ち向かいます。

しかしチュウタの力ではやはりドーラにかないません。
ドーラの猛攻に「もうだめだ」と思ったとき、「もうお前の思い通りにはさせない」そう言って仲間の一匹が駆けつけました。

「お前如きになにができる」とあざ笑うドーラ。
しかし見ればたくさんのネズミが集まっていました。
「友達のために戦うチュウタを見て目が覚めた」と言ってネズミたちはドーラに挑みます。
傷つきながらもみんなで力を合わせた結果、チュウタたちはドーラを倒すことができました。

ドーラがいなくなり、ネズミの国は平和を取り戻しました。
以降、チュウタとネズミたちは様々な困難に対して力を合わせるようになり、ネズミの国は幸せになりました。",1012191,14103,NULL
NULL,html-keyboard-response,6,1622790,0.0-6.0,5041386,outline,2025/8/8 11:33,2025/8/8 12:00,debrief,NULL,4842, ,NULL,NULL,NULL,NULL,<p style='text-algin:left'>これで実験は終了です。お疲れ様でした。</p><p style='text-algin:left'>スペースキーを押して、謝金の支払いに関わる最後の質問に移行してください。</p>
1,preload,0,12,0.0-0.0,5081515,outline,2025/8/8 11:35,2025/8/8 12:01,NULL,NULL,NULL,NULL,NULL,NULL,NULL,NULL,NULL
1,fullscreen,1,4474,0.0-1.0,5081515,outline,2025/8/8 11:35,2025/8/8 12:01,FullScreen,NULL,NULL,NULL,NULL,NULL,NULL,NULL,NULL
NULL,instructions,2,88031,0.0-2.0,5081515,outline,2025/8/8 11:35,2025/8/8 12:01,outline_inst_tl,Array,83555,NULL,NULL,NULL,NULL,NULL,NULL
NULL,survey-html-form,3,568083,0.0-3.0,5081515,outline,2025/8/8 11:35,2025/8/8 12:01,outline_task,NULL,NULL,Array,"・主人公は飼い主に捨てられた犬
・新しい飼い主に引き取られ、今まで感じたことのない幸せをたくさん知る
・前の飼い主と一緒にいる昔の自分の夢を見る
・私は幸せになったよ、幸せになれるよと過去の自分に伝える",NULL,NULL,NULL,NULL
NULL,instructions,4,629601,0.0-4.0,5081515,outline,2025/8/8 11:35,2025/8/8 12:01,main_task_inst_tl,Array,61516,NULL,NULL,NULL,NULL,NULL,NULL
NULL,html-keyboard-response,5,1585693,0.0-5.0,5081515,outline,2025/8/8 11:35,2025/8/8 12:01,writing_block,NULL,NULL,NULL,NULL,"私の住んでいる場所は地面の上だった。暑い時も、寒い時も、ずっと一人だった。ごはんも置かれるだけで、一人で食べた。飲み水もずっと置きっぱなしで、時々水たまりも飲んだ。
ある時私は全然知らないところに連れて行ってもらえた。なんだか大きな施設だった。私の飼い主は私を置いて帰ってしまった。いつ迎えに来てくれるんだろうと待っていたら、なんだか知らない人が私を連れて行ってくれた。
新しいおうちは屋根があった。いつも誰かが一緒にいてくれる。知らないものがたくさんあって、なんだかすごく楽しかった。お水もいつも冷たくておいしかった。知らないところにもたくさん連れて行ってもらえて、沢山においを嗅いだり、景色を見たり、歩いて走って風を感じて、くたくたになるまで楽しいことがいっぱいだ。
毎日ふかふかなお布団で寝れる。寝ていたら、前に私を飼っていた人とその時の私が見えた。私の顔を見たら、なんだかつまらなそうな顔をしていた。だから、私は昔の私に教えてあげた。
今の私が知らない楽しいことがたくさんこれから待ってるんだよって。いっぱい愛してもらえるんだよって。今の私はすごく幸せなんだよ、だから楽しみに待っててねって。
なんだかおいしそうな香りがする。おいしいごはんの時間だ！夢から覚めた時、大好きなお母さんが見えた。",956090,5455,NULL
NULL,html-keyboard-response,6,1588389,0.0-6.0,5081515,outline,2025/8/8 11:35,2025/8/8 12:01,debrief,NULL,2694, ,NULL,NULL,NULL,NULL,<p style='text-algin:left'>これで実験は終了です。お疲れ様でした。</p><p style='text-algin:left'>スペースキーを押して、謝金の支払いに関わる最後の質問に移行してください。</p>
1,preload,0,6,0.0-0.0,769122,outline,2025/8/8 11:32,2025/8/8 12:01,NULL,NULL,NULL,NULL,NULL,NULL,NULL,NULL,NULL
1,fullscreen,1,3830,0.0-1.0,769122,outline,2025/8/8 11:32,2025/8/8 12:01,FullScreen,NULL,NULL,NULL,NULL,NULL,NULL,NULL,NULL
NULL,instructions,2,129553,0.0-2.0,769122,outline,2025/8/8 11:32,2025/8/8 12:01,outline_inst_tl,Array,125721,NULL,NULL,NULL,NULL,NULL,NULL
NULL,survey-html-form,3,609559,0.0-3.0,769122,outline,2025/8/8 11:32,2025/8/8 12:01,outline_task,NULL,NULL,Array,"・森の中で黒猫のミーが暮らしている
・子猫の頃に女の子に出会って名付けてもらった
・ミーは大きくなったので女の子を探しに行こうと思い立った
・旅の途中でいろいろな仲間と出会い助けられる
・ついには森のはずれで女の子と再会する
・女の子の家族にも認められてこれからは一緒に暮らすことになる
・独りぼっちの猫が家族を見つける話",NULL,NULL,NULL,NULL
NULL,instructions,4,656744,0.0-4.0,769122,outline,2025/8/8 11:32,2025/8/8 12:01,main_task_inst_tl,Array,47182,NULL,NULL,NULL,NULL,NULL,NULL
NULL,html-keyboard-response,5,1739718,0.0-5.0,769122,outline,2025/8/8 11:32,2025/8/8 12:01,writing_block,NULL,NULL,NULL,NULL,"黒猫のミーは元気な男の子。森の中で1人で過ごしていたけれど、そんな彼にもどうしても忘れられない出会いがありました。それが、子猫の頃に森にお花を摘みにやってきた女の子です。
その様子を木陰からじっと見守っていましたが、子猫の陰に気づいた女の子が優しく話しかけてくれました。その時に、子猫は「ミー」という名前をもらったのです。
女のことはそれきりだったものの、1人で過ごすとき、ミーは彼女の優しい笑顔をよく思い出していました。
やがて月日は流れ、ミーも立派な大人になります。狩りが上手になり、行動範囲も広がりました。そこでミーは、今度は自分から女の子に会いに行こうと思い立ちました。
あの時に女の子は、自分が森のはずれにある街に住んでいることを教えてくれたので、それほど距離は離れていないはず。自分の足でもきっと行けるはずです。
道中にはさまざまな困難がありましたが、ミーをよく知るうさぎやリス、鹿やキツネなどが手助けしてくれます。女の子を見かけたことがあるという情報もくれました。
やっとたどり着いた町は、静かないいところです。自分と同じような猫も暮らしていて雰囲気もよさそう。彼らはとても気さくで、ミーの探している女の子のことも、どこに住んでいるかも優しく教えてくれました。
そして、待ちに待った再会です。女の子もミーのことをよく覚えており、体調を崩してあれきり会いに行けなくなったことが心残りだったようでした。
女の子はミーを家族に「この子は私の友達」だと紹介し、独りぼっちだったミーもとっても嬉しい気持ちになります。たくさん話したり遊んでいるうちに離れたくないという気持ちも強くなります。
そろそろ森に帰らなければと思い始めた頃、女の子とご両親が、よければここで一緒に暮らさないかと誘ってくれました。ミーといる女の子はとっても元気そうだし、ここは静かでいい場所だし、いつでも森に遊びに行けるから、うさぎやリスともいつでも会えるよと。
ミーは悩みましたが、家族の温かさを手放すことはもうできなさそうです。ミーは女の子と一緒に暮らすことを決めて、末永く幸せに暮らしました。",1082973,6629,NULL
NULL,html-keyboard-response,6,1747376,0.0-6.0,769122,outline,2025/8/8 11:32,2025/8/8 12:01,debrief,NULL,7657, ,NULL,NULL,NULL,NULL,<p style='text-algin:left'>これで実験は終了です。お疲れ様でした。</p><p style='text-algin:left'>スペースキーを押して、謝金の支払いに関わる最後の質問に移行してください。</p>
1,preload,0,14,0.0-0.0,1034994,outline,2025/8/8 11:33,2025/8/8 12:02,NULL,NULL,NULL,NULL,NULL,NULL,NULL,NULL,NULL
1,fullscreen,1,4198,0.0-1.0,1034994,outline,2025/8/8 11:33,2025/8/8 12:02,FullScreen,NULL,NULL,NULL,NULL,NULL,NULL,NULL,NULL
NULL,instructions,2,56239,0.0-2.0,1034994,outline,2025/8/8 11:33,2025/8/8 12:02,outline_inst_tl,Array,52041,NULL,NULL,NULL,NULL,NULL,NULL
NULL,survey-html-form,3,536242,0.0-3.0,1034994,outline,2025/8/8 11:33,2025/8/8 12:02,outline_task,NULL,NULL,Array,"眠っていた主人公は、突然、見知らぬ場所で目を覚ます。そこは、魔法が存在する異世界だった。森の中で、彼は一人の少女と出会う。少女は、人間たちから精霊を守るために戦っていた。主人公は、彼女の純粋さに心を打たれ、共に精霊を救う旅に出る。

旅の途中、二人はさまざまな種族と出会い、それぞれが抱える苦悩を知っていく。旅が進むにつれ、主人公はやがて元の世界に戻るのか、それともこの世界に残るのかという選択を迫られる。

やがて訪れる、精霊を狙う存在との決戦。仲間たちと力を合わせ、彼らは精霊を救うために戦う。激しい戦いの末、主人公は元の世界に戻る道を選ぶ。

しかし、その心には異世界での経験が深く刻まれていた。彼は新たな視点を得て、現代社会と向き合っていくのだった。",NULL,NULL,NULL,NULL
NULL,instructions,4,578638,0.0-4.0,1034994,outline,2025/8/8 11:33,2025/8/8 12:02,main_task_inst_tl,Array,42396,NULL,NULL,NULL,NULL,NULL,NULL
NULL,html-keyboard-response,5,1757063,0.0-5.0,1034994,outline,2025/8/8 11:33,2025/8/8 12:02,writing_block,NULL,NULL,NULL,NULL,"目を開けた瞬間、直哉は息を呑んだ。
頭上には、見たこともないほど青く澄んだ空。木々は高くそびえ、葉の間からこぼれる光は金色に輝いていた。
ここは、どこだ？
最後に覚えているのは、深夜まで残業して、帰宅途中に急な眠気に襲われたことだけ。

足音がした。振り返ると、そこには一人の少女が立っていた。
淡い銀色の髪に、湖のような瞳。背には、淡く光を放つ羽のようなものが揺れている。
「あなた……人間？」
少女の声は透き通っていたが、その瞳には警戒の色があった。

突然、矢が飛んできた。少女は瞬時に手をかざし、空中で矢は氷の結晶となって砕け散る。
「急いで！　精霊たちが狙われているの！」
そう告げると、彼女は駆け出した。直哉は訳も分からぬまま、その後を追った。

少女の名はリィナ。森に棲む精霊たちの守護者であり、人間の狩人たちから彼らを守っているという。
直哉は、彼女の真っ直ぐな信念に心を打たれ、共に旅をすることを決意する。

旅の道中、二人は獣人の村、地下に暮らすドワーフ、天空の浮島に住む翼人など、さまざまな種族と出会う。
しかしどの地にも、人間による精霊狩りの影が忍び寄っていた。
それぞれの種族には、戦わざるを得ない事情や深い悲しみがあった。

やがて二人は、精霊を狙う黒衣の男??「影喰い」と呼ばれる存在と対峙する。
彼は異世界の均衡を崩し、精霊の命を力に変えて世界を支配しようとしていた。
「直哉、お前は選べ。この世界を救うか、元の世界に戻るか」
影喰いの言葉は、直哉の胸を突き刺す。

戦いの果てに影喰いは倒れる。しかし、世界を救った後、精霊たちは彼に別れを告げる。
リィナは笑顔を浮かべたが、その瞳にはわずかな涙が光っていた。
「……あなたの世界にも、きっと守るべきものがあるでしょう？」

直哉は元の世界に戻ることを選んだ。
通勤電車の窓から見える景色は以前と変わらない。しかし、彼の心には異世界の森の風、仲間たちの笑い声、リィナの微笑みが残っていた。

その日から、彼は小さな優しさを積み重ねるようになった。道端の花を守り、困っている人に手を差し伸べ、日常の中で精霊のような存在を見つけ出す。
あの世界で学んだことは、今も確かに生きている。",1178424,94409,NULL
NULL,html-keyboard-response,6,1759913,0.0-6.0,1034994,outline,2025/8/8 11:33,2025/8/8 12:02,debrief,NULL,2849, ,NULL,NULL,NULL,NULL,<p style='text-algin:left'>これで実験は終了です。お疲れ様でした。</p><p style='text-algin:left'>スペースキーを押して、謝金の支払いに関わる最後の質問に移行してください。</p>
1,preload,0,12,0.0-0.0,5302284,outline,2025/8/8 11:37,2025/8/8 12:03,NULL,NULL,NULL,NULL,NULL,NULL,NULL,NULL,NULL
1,fullscreen,1,3280,0.0-1.0,5302284,outline,2025/8/8 11:37,2025/8/8 12:03,FullScreen,NULL,NULL,NULL,NULL,NULL,NULL,NULL,NULL
NULL,instructions,2,148987,0.0-2.0,5302284,outline,2025/8/8 11:37,2025/8/8 12:03,outline_inst_tl,Array,145707,NULL,NULL,NULL,NULL,NULL,NULL
NULL,survey-html-form,3,628993,0.0-3.0,5302284,outline,2025/8/8 11:37,2025/8/8 12:03,outline_task,NULL,NULL,Array,"ネズミのチュウタがみんなと冒険して成長する物語
ネズミのチュウタが街を回って仲間を集める物語
ネズミのチュウタが船に乗ってたくさんの島を巡る冒険の物語
ネズミのチュウタが秘宝を求めて未知の島を探索して強くなっていく物語
",NULL,NULL,NULL,NULL
NULL,instructions,4,661123,0.0-4.0,5302284,outline,2025/8/8 11:37,2025/8/8 12:03,main_task_inst_tl,Array,32128,NULL,NULL,NULL,NULL,NULL,NULL
NULL,html-keyboard-response,5,1540849,0.0-5.0,5302284,outline,2025/8/8 11:37,2025/8/8 12:03,writing_block,NULL,NULL,NULL,NULL,ネズミのチュウタが七つの島を巡る冒険の物語がはじまります。一つの目の島で鹿のティコと出会い一緒に冒険に出るようになりました。２つ目の島では一つ目の鬼と死闘を交わして金色の輝く秘宝を手に入れました。３つ目の島でワシのミサンガと出会いました。冒険の話をして共感し一緒に旅に出かけました。４つ目の島でイノシシの群れから逃げながら２つ目の青い秘宝を手に入れました。５つ目の島で海から眺める絶景を見ながら６つ目の島へ向けて急ぎました。６つ目の島では大きな町があり、疲れた身体をいやしながら仲間との絆を高めました。最後の島では、大きな鬼が最後の秘宝を守っていました。仲間と協力しながら鬼を撃退し、虹色に輝く秘宝を手に入れることができました。仲間との冒険の旅は一生の思い出になり、楽しい時間を手に入れることができました。,879724,5316,NULL
NULL,html-keyboard-response,6,1543047,0.0-6.0,5302284,outline,2025/8/8 11:37,2025/8/8 12:03,debrief,NULL,2197, ,NULL,NULL,NULL,NULL,<p style='text-algin:left'>これで実験は終了です。お疲れ様でした。</p><p style='text-algin:left'>スペースキーを押して、謝金の支払いに関わる最後の質問に移行してください。</p>
1,preload,0,161,0.0-0.0,2592945,outline,2025/8/8 11:33,2025/8/8 12:06,NULL,NULL,NULL,NULL,NULL,NULL,NULL,NULL,NULL
1,fullscreen,1,3746,0.0-1.0,2592945,outline,2025/8/8 11:33,2025/8/8 12:06,FullScreen,NULL,NULL,NULL,NULL,NULL,NULL,NULL,NULL
NULL,instructions,2,234822,0.0-2.0,2592945,outline,2025/8/8 11:33,2025/8/8 12:06,outline_inst_tl,Array,231075,NULL,NULL,NULL,NULL,NULL,NULL
NULL,survey-html-form,3,714836,0.0-3.0,2592945,outline,2025/8/8 11:33,2025/8/8 12:06,outline_task,NULL,NULL,Array,"・現場仕事のコウタは毎日灼熱の中で過酷な労働を続けていた。
・プログラマーのシゲオは空調の効いた快適な屋内で趣味が高じて上達したプログラミングの仕事で活躍していた。
・仕事が休みのある日、コウタは幼馴染のシゲオの家に出向き、自分と違って良い労働環境で仕事が出来ているシゲオに驚くとともに若干の嫉妬心を覚える。
・自分もより良い環境で仕事がしてみたいとコウタは現場仕事を辞め、プログラミングの勉強を独学で始めることにする。
・学生時代から勉強が苦手で特に数学が出来なかったコウタは、なぜかプログラミングで非凡な才能を発揮し、いつのまにか自分でプログラムの仕事を受注できるほどに成長した。
・シゲオはコウタの成長を素直に喜び、褒め称え、一緒にプログラムの会社を立ち上げようと提案した。
",NULL,NULL,NULL,NULL
NULL,instructions,4,766536,0.0-4.0,2592945,outline,2025/8/8 11:33,2025/8/8 12:06,main_task_inst_tl,Array,51698,NULL,NULL,NULL,NULL,NULL,NULL
NULL,html-keyboard-response,5,1966543,0.0-5.0,2592945,outline,2025/8/8 11:33,2025/8/8 12:06,writing_block,NULL,NULL,NULL,NULL,コウタは今日も灼熱の道路工事の仕事に精を出していた。決して望んで就いた仕事ではない。学生の頃から勉強嫌いで就職先を選べなかったからだ。コウタには幼馴染の友達がいた。その名はシゲオ。シゲオは小学校から誰よりも勉強が得意で常に皆の注目を浴びていた。彼の今の仕事はやり手のプログラマーだ。仕事が休みのある日、コウタはシゲオから久しぶりに会おうと声をかけられ、仕事場に出向いた。するとそこにはクリーンで快適な理想の職場空間が広がっていた。自分にできるか分からないがオレもこんな恵まれた環境で仕事がしたい。そう思ったコウタは一念発起し、独学でプログラミングの勉強を始めた。無謀な挑戦にもみえたが、コウタは数学の知識ほぼゼロの状態であるにも関わらず、好きなパズルゲーム感覚でみるみるとプログラミングの腕を磨き続けていった。その様子をみたシゲオは「おい、コウタ、お前すごいよ！俺と一緒に会社作って大儲けしようぜ！」とコウタを誘い、小さなIT会社を設立した。最初にやった仕事はパズルゲームの開発。コウタの生まれ持ったゲームセンスとシゲオの緻密なプログラミングテクニックのあわせ技で、強豪ひしめくゲーム業界の中で、いきなりミリオンセールスを記録する大ヒットとなった。しかし幸運は長くは続かなかった。コウタが死の病に侵されてしまったのだ。かつて過酷な労働環境で我慢して長く働き続けたことによる、いわば労働災害のようなものだった。ヒットした初作に続く第二弾が、コウタの遺作になるかもしれない。そう直感したシゲオは寝る間を惜しんで病に苦しむコウタとともに日夜開発に勤しんだ。数カ月後のある日、待望の第二弾のパズルゲームが世に出たが、皮肉にもその日はコウタとシゲオの命日となるのだった。心からやりたいことをやりきり、一生を全力で駆け抜けた二人は、天国でもパズルゲームの開発に勤しんでいるに違いない。,1200002,51877,NULL
NULL,html-keyboard-response,6,1972690,0.0-6.0,2592945,outline,2025/8/8 11:33,2025/8/8 12:06,debrief,NULL,6145, ,NULL,NULL,NULL,NULL,<p style='text-algin:left'>これで実験は終了です。お疲れ様でした。</p><p style='text-algin:left'>スペースキーを押して、謝金の支払いに関わる最後の質問に移行してください。</p>
1,preload,0,7,0.0-0.0,169251,outline,2025/8/8 11:35,2025/8/8 12:06,NULL,NULL,NULL,NULL,NULL,NULL,NULL,NULL,NULL
1,fullscreen,1,2602,0.0-1.0,169251,outline,2025/8/8 11:35,2025/8/8 12:06,FullScreen,NULL,NULL,NULL,NULL,NULL,NULL,NULL,NULL
NULL,instructions,2,106968,0.0-2.0,169251,outline,2025/8/8 11:35,2025/8/8 12:06,outline_inst_tl,Array,104360,NULL,NULL,NULL,NULL,NULL,NULL
NULL,survey-html-form,3,586989,0.0-3.0,169251,outline,2025/8/8 11:35,2025/8/8 12:06,outline_task,NULL,NULL,Array,"チュウタは都会の繁華街に住んでいるネズミであり、捕食するカラスや駆除しようとする人間などの天敵の存在が身近にいて常に危険と隣り合わせの環境で生活していた。
ある日チュウタは仲間達を集めて、今住んでいる危険な地域を離れてより良く暮らせる自然豊かな場所に、みんなで移住しようと演説した。
危険な旅になるので躊躇する仲間が数匹いたが、説得を重ねて了承を得て、新天地を目指して旅を始めた。
旅の途中で食料が尽きてしまったり、天敵からの襲撃に逢うなどのトラブルがあって次々と仲間達の数が減って行くものの、チュウタは仲間達を励ましながら着実に旅を進めていく。
最終的に食料や自然が豊かな森に辿り着くことが出来て、チュウタは仲間達と幸せに暮らすハッピーエンド。",NULL,NULL,NULL,NULL
NULL,instructions,4,619012,0.0-4.0,169251,outline,2025/8/8 11:35,2025/8/8 12:06,main_task_inst_tl,Array,32022,NULL,NULL,NULL,NULL,NULL,NULL
NULL,html-keyboard-response,5,1819035,0.0-5.0,169251,outline,2025/8/8 11:35,2025/8/8 12:06,writing_block,NULL,NULL,NULL,NULL,"チュウタは仲間のネズミ達を集めて演説を始めた。
「このままだと、人間やカラス達に命を奪われてしまう。もっと安心して暮らせる場所に移住しよう」
仲間のネズミ達のうち、長老格の数匹のネズミは命を落とす可能性のある旅への参加を拒否した。
チュウタが諦めずに何度も説得を繰り返していると、チュウタの熱意に負けて長老達は旅への参加を了承した。
仲間達と入念に計画を練りながら準備を進めていくチュウタたち。
準備の途中で、ネズミ狩の人間達に数匹の仲間が駆除されてしまうアクシデントがあったものの、無事に準備を完了させることが出来た。
移住の旅を開始して２０日を過ぎた頃に用意していた食料が夏場の高温多湿の影響で腐ってしまい、食料を失うトラブルが発生した。
チュウタ達は食料を現地調達しながら、懸命に移住の旅を続けた。
チュウタの仲間のネズミ達が毎日のように餓死していく危機的な状況の中、ネズミの天敵であるノラ猫の群れの襲撃を受ける。
チュウタ達はチームワークを活かしてボス猫に向かって突撃して、ボス猫の鼻に噛み付いてボス猫を撃退した、
手下のノラ猫たちはボス猫が負けてしまった様子を見て、一斉に逃げ出していった。
仲間の半数を失ったものの、ノラ猫を撃退することに成功したチュウタ達はお互いに喜び合った。
その後も旅を続けたチュウタ達は、美しい自然が広がる食料豊かな森にたどり着くことが出来た。
チュウタはその森で仲間達と豊かな生活をおくり、楽しく余生を過ごした。",1200022,6383,NULL
NULL,html-keyboard-response,6,1823699,0.0-6.0,169251,outline,2025/8/8 11:35,2025/8/8 12:06,debrief,NULL,4662, ,NULL,NULL,NULL,NULL,<p style='text-algin:left'>これで実験は終了です。お疲れ様でした。</p><p style='text-algin:left'>スペースキーを押して、謝金の支払いに関わる最後の質問に移行してください。</p>
1,preload,0,6,0.0-0.0,4101728,outline,2025/8/8 11:33,2025/8/8 12:08,NULL,NULL,NULL,NULL,NULL,NULL,NULL,NULL,NULL
1,fullscreen,1,3861,0.0-1.0,4101728,outline,2025/8/8 11:33,2025/8/8 12:08,FullScreen,NULL,NULL,NULL,NULL,NULL,NULL,NULL,NULL
NULL,instructions,2,89787,0.0-2.0,4101728,outline,2025/8/8 11:33,2025/8/8 12:08,outline_inst_tl,Array,85926,NULL,NULL,NULL,NULL,NULL,NULL
NULL,survey-html-form,3,569791,0.0-3.0,4101728,outline,2025/8/8 11:33,2025/8/8 12:08,outline_task,NULL,NULL,Array,"キツネとタヌキの化かしあい
変化が苦手なタヌキがいました。
そんなタヌキをいつも小馬鹿にしていたキツネがある日、どっちが人間を驚かせられるか勝負をしようと言ってきました。
タヌキは断ろうと思いましたが、勝負に勝ったらタヌキが欲しいものを1つだけ絶対に叶えてあげるとキツネが言ったので、タヌキは勝負することに決めました。
驚かす",NULL,NULL,NULL,NULL
NULL,instructions,4,929626,0.0-4.0,4101728,outline,2025/8/8 11:33,2025/8/8 12:08,main_task_inst_tl,Array,359832,NULL,NULL,NULL,NULL,NULL,NULL
NULL,html-keyboard-response,5,2129629,0.0-5.0,4101728,outline,2025/8/8 11:33,2025/8/8 12:08,writing_block,NULL,NULL,NULL,NULL,"キツネとタヌキの化かしあい
変化が苦手なタヌキがいました。
そなんなタヌキをいつも小馬鹿にしていたキツネがある日、どっちが多くの人間たちを驚かせられるか勝負しようと言ってきました。

タヌキは断ろうとしましたが、勝負に勝ったらタヌキが欲しいものを1つだけ絶対に叶えてあげるとキツネが言ったので、タヌキは勝負することに決めました。

その日までにタヌキは驚かすことについて考えました。


勝負の日になって、2匹は人間の町に降りました。

キツネは綺麗な女の人に化けて町を歩きました。
周りの人間たちはみんな見惚れています。

キツネは勝負に勝ったと思いましたが、小さな子供たちがキツネを見ずに横を走りだしました。

不思議に思って振り返るとタヌキがしっぽと耳がでているにお団子",1200001,22957,NULL
NULL,html-keyboard-response,6,2133016,0.0-6.0,4101728,outline,2025/8/8 11:33,2025/8/8 12:08,debrief,NULL,3385, ,NULL,NULL,NULL,NULL,<p style='text-algin:left'>これで実験は終了です。お疲れ様でした。</p><p style='text-algin:left'>スペースキーを押して、謝金の支払いに関わる最後の質問に移行してください。</p>
1,preload,0,28,0.0-0.0,115345,outline,2025/8/8 11:39,2025/8/8 12:10,NULL,NULL,NULL,NULL,NULL,NULL,NULL,NULL,NULL
1,fullscreen,1,7667,0.0-1.0,115345,outline,2025/8/8 11:39,2025/8/8 12:10,FullScreen,NULL,NULL,NULL,NULL,NULL,NULL,NULL,NULL
NULL,instructions,2,125448,0.0-2.0,115345,outline,2025/8/8 11:39,2025/8/8 12:10,outline_inst_tl,Array,117781,NULL,NULL,NULL,NULL,NULL,NULL
NULL,survey-html-form,3,605451,0.0-3.0,115345,outline,2025/8/8 11:39,2025/8/8 12:10,outline_task,NULL,NULL,Array,"・太郎はまだ新人のプロレスラーだ
・今日は仲間とタッグを組んで試合に出場する
・タッグを組む仲間は知り合ったばかりの次郎だ
・敵チームは強豪のマッスル団だ
・マッスル団には、三郎と四郎がいる
・試合が始まり、太郎と三郎が対戦する
・三郎が優勢で、太郎は苦戦する
・太郎は次郎と交代するが、次郎もボロボロにやられる
・二人とも勝負を諦めかけたが、次郎が「ここで負けたら俺はプロレスをやめる」と言い出した
・太郎は次郎を引退させたくないため、火事場の馬鹿力で奮闘した
・次郎の言葉のおかげで、太郎と次郎は善戦し、勝利を獲得した
・太郎は次郎と握手を交わし、「友情が俺の力になった」と言った
・太郎と次郎はこれからも良いタッグとして活躍するだろう",NULL,NULL,NULL,NULL
NULL,instructions,4,659291,0.0-4.0,115345,outline,2025/8/8 11:39,2025/8/8 12:10,main_task_inst_tl,Array,53839,NULL,NULL,NULL,NULL,NULL,NULL
NULL,html-keyboard-response,5,1859293,0.0-5.0,115345,outline,2025/8/8 11:39,2025/8/8 12:10,writing_block,NULL,NULL,NULL,NULL,太郎は新人のプロレスラー。デビューから半年が経つが、まだまだ弱くて、一度も試合に勝利したことはない。そこで所属団体の会長から、次の試合はタッグチームで出場することを告げられた。それなら勝てるかもしれないということらしい。会長から紹介された仲間は、新人の次郎だ。次郎もまだ一度も勝てず悩んでいるようだ。でも、いつまでもクヨクヨしてられない。2人はお互いに絶対に勝つことを決心し、試合に挑んだ。試合の相手は、ベテランのマッスル団だ。力技の三郎と、空中戦が得意な四郎だ。試合のゴングが鳴り、まずは太郎と三郎の対戦が始まった。しかし力の差は明らかで、三郎が圧倒している。太郎はこのままでは負けてしまうと思い、急いで次郎と交代した。マッスル団も、四郎に交代したようだ。次郎と四郎の戦いも、四郎が圧倒的に強かった。次郎は太郎と交代する際、小声で「この試合に負けたら引退するから」と言った。太郎は驚いたが、この言葉を聞いて、「絶対に勝つぞ！」と思った。そうすると太郎の力がみなぎってきた。太郎は猛烈な勢いでマッスル団たちをリングに叩きつけ、逆転勝利を収めた。太郎は「これが火事場の馬鹿力なのか」と思った。火事場の馬鹿力とは、普段では到底発揮できないような能力を、ピンチのときだけ発揮できる力だ。次郎もこの逆転劇に驚き、太郎を称えた。太郎は次郎と肩を組み、「もう引退するなんて言うなよ。これからは俺たち2人でチャンピオンを目指そう」と誓い合った。その後、2人は多くの試合で快進撃を続け、あっという間にチャンピオンを勝ち取ることができた。,1200001,8140,NULL
NULL,html-keyboard-response,6,1861820,0.0-6.0,115345,outline,2025/8/8 11:39,2025/8/8 12:10,debrief,NULL,2526, ,NULL,NULL,NULL,NULL,<p style='text-algin:left'>これで実験は終了です。お疲れ様でした。</p><p style='text-algin:left'>スペースキーを押して、謝金の支払いに関わる最後の質問に移行してください。</p>
1,preload,0,11,0.0-0.0,81949,outline,2025/8/8 11:37,2025/8/8 12:10,NULL,NULL,NULL,NULL,NULL,NULL,NULL,NULL,NULL
1,fullscreen,1,4319,0.0-1.0,81949,outline,2025/8/8 11:37,2025/8/8 12:10,FullScreen,NULL,NULL,NULL,NULL,NULL,NULL,NULL,NULL
NULL,instructions,2,137823,0.0-2.0,81949,outline,2025/8/8 11:37,2025/8/8 12:10,outline_inst_tl,Array,133502,NULL,NULL,NULL,NULL,NULL,NULL
NULL,survey-html-form,3,617827,0.0-3.0,81949,outline,2025/8/8 11:37,2025/8/8 12:10,outline_task,NULL,NULL,Array,"進学校に通う高校三年の悟は、ある暑い夏の夜に夢を見た。
夢の内容は、遠くに住んでいる叔母が突然遅い時間に悟の家に訪問してくる夢だった。
叔母は何か言いかけたが何を言ってるかわからず、そこで目が覚めた。
1階のリビングに降りると、飛行機が墜落したニュースが流れ、両親が食い入るように見ていた。
すると突然父親のスマホが鳴り、墜落した飛行機に叔母が乗っているとの連絡が入った。
亡くなった叔母の葬儀は終わったが、悟は夢のことが気になっていたため、叔母の家へと向かう。
そこで叔父から聞いた話にショックを受けた悟は、叔母の言いたかったことが何かを突き止めるため、広島へ向かう。
悟は叔母の生涯を探ることで、人生の",NULL,NULL,NULL,NULL
NULL,instructions,4,757002,0.0-4.0,81949,outline,2025/8/8 11:37,2025/8/8 12:10,main_task_inst_tl,Array,139175,NULL,NULL,NULL,NULL,NULL,NULL
NULL,html-keyboard-response,5,1957004,0.0-5.0,81949,outline,2025/8/8 11:37,2025/8/8 12:10,writing_block,NULL,NULL,NULL,NULL,"進学校に通っている高校三年の悟は、最近なぜ勉強しているのか、人生とは一体何なのか、答えが見つからず苦悩していた。
その日は朝から暑く、午後2時過ぎには38℃超え、夜の11時を過ぎても30℃を切るかどうかの暑さで、蒸し暑さもあったせいか眠気が襲ったのは夜中の1時を過ぎた頃だった。
ようやくウトウトしかけた頃、突如家のチャイムが鳴る。こんな時間に一体誰だろうと思い1階の玄関へ降りたが誰もいない。両親はチャイムに気づかないほど寝入っているようだ。
気味の悪い出来事だとは思いながらも、もう一度寝ようと自分の部屋へ戻ったところ、ベッドの上には笑顔の叔母がこちらを向いて座っていた。
時間が時間なので普段ならビックリするところだが、なぜか冷静でいられる自分が不思議だった。
「おばさ..ん？」と言いかけたところで、叔母さんが口をパクパクさせ何か言ってるのはわかったのだが、何を言ってるのか良く聞こえない。「ん？何？聞こえない、何？」と言うか言わないかのところで、突然大音量の音楽がスマホから鳴り響いた。目覚ましだった。
すぐに夢だと気付いたが、やけにハッキリした夢で不思議な気分だった。
その日は夏休み中だったがレポート提出の期限で、不明点を調べに学校の図書館へ調べに行く予定があった。",1200001,15173,NULL
NULL,html-keyboard-response,6,1960237,0.0-6.0,81949,outline,2025/8/8 11:37,2025/8/8 12:10,debrief,NULL,3230, ,NULL,NULL,NULL,NULL,<p style='text-algin:left'>これで実験は終了です。お疲れ様でした。</p><p style='text-algin:left'>スペースキーを押して、謝金の支払いに関わる最後の質問に移行してください。</p>
1,preload,0,36,0.0-0.0,1541203,outline,2025/8/8 11:37,2025/8/8 12:10,NULL,NULL,NULL,NULL,NULL,NULL,NULL,NULL,NULL
1,fullscreen,1,5244,0.0-1.0,1541203,outline,2025/8/8 11:37,2025/8/8 12:10,FullScreen,NULL,NULL,NULL,NULL,NULL,NULL,NULL,NULL
NULL,instructions,2,214046,0.0-2.0,1541203,outline,2025/8/8 11:37,2025/8/8 12:10,outline_inst_tl,Array,208800,NULL,NULL,NULL,NULL,NULL,NULL
NULL,survey-html-form,3,694050,0.0-3.0,1541203,outline,2025/8/8 11:37,2025/8/8 12:10,outline_task,NULL,NULL,Array,"・きつねのコン太は、ひとけのない森に住んでいた。
・しかし、森には食べ物がほとんどなくなってしまった。
・しかたなしに、コン太は食べ物を探しに人間のいるところに向かう。
・そこでは、ゴミステーションの中に、食べられるものがあることに気づく。
・コン太は、ゴミステーションで食べ物を探していると、人間が来てびっくりして逃げた。
・コン太は、別の日にゴミステーションで食べ物を探すと、人間に捕まってしまった。
・コン太は、不安になるが、その人間は、コン太をペットとして飼うことになった。
・コン太は、食べ物に困ることのない生活になった。",NULL,NULL,NULL,NULL
NULL,instructions,4,792999,0.0-4.0,1541203,outline,2025/8/8 11:37,2025/8/8 12:10,main_task_inst_tl,Array,98948,NULL,NULL,NULL,NULL,NULL,NULL
NULL,html-keyboard-response,5,1993002,0.0-5.0,1541203,outline,2025/8/8 11:37,2025/8/8 12:10,writing_block,NULL,NULL,NULL,NULL,"きつねのコン太は、父と母と3匹で、人けのない森で暮らしていた。
コン太は、両親のもとで、元気だった。
しかし、その森では、徐々に食べ物がなくなっていった。
そんな中、コン太のお父さんは、病気になり、死んでしまった。
コン太は、お父さんがいなくなり悲しんでいた。
その数日後に、コン太のお母さんも、病気になり死んでしまった。
コン太は、両親がいなくなってしまった。
コン太は、これからどうしたらいいのかわからず、困っていたが、そんな中、森の食べ物がほとんどなくなってしまった。
コン太は、お腹が減ったので、森から出ていき、別の場所で食べ物を探すことにした。
コン太は、人間のいる所に向かった。
コン太は、人間のいる場所を、両親に聞いていた。
コン太は、人間のいる場所をで、食べ物を探していると、ゴミステーションをみつけた。
そこには、食べ物があったので、コン太は食べ物を食べていた。
すると、そこに人間がやってきた。
コン太は、びっくりしながら、逃げていった。
コン太は、別の日に、再びゴミステーションに行くことにした。
そして、ゴミステーションに到着し、食べ物を探していると、知らない間に人間が近くに来ていた。
コン太は、気づかずに食べ物を食べていると、コン太は人間に捕まってしまった。
コン太は、自分が食べられるのではないかと、とても恐怖を感じていた。
その後、コン太はその人間の家に連れて行かれた。
コン太は、そこでペットとして、飼われることになった。
食べ物に困っていたコン太は、飼い主に大切に飼われ、食べ物に困ることのない生活になった。
コン太は、優しい飼い主に飼われ、幸せな生活を送ったとさ。",1200002,6994,NULL
NULL,html-keyboard-response,6,1995870,0.0-6.0,1541203,outline,2025/8/8 11:37,2025/8/8 12:10,debrief,NULL,2867, ,NULL,NULL,NULL,NULL,<p style='text-algin:left'>これで実験は終了です。お疲れ様でした。</p><p style='text-algin:left'>スペースキーを押して、謝金の支払いに関わる最後の質問に移行してください。</p>
1,preload,0,10,0.0-0.0,2100161,outline,2025/8/8 11:51,2025/8/8 12:20,NULL,NULL,NULL,NULL,NULL,NULL,NULL,NULL,NULL
1,fullscreen,1,5525,0.0-1.0,2100161,outline,2025/8/8 11:51,2025/8/8 12:20,FullScreen,NULL,NULL,NULL,NULL,NULL,NULL,NULL,NULL
NULL,instructions,2,26855,0.0-2.0,2100161,outline,2025/8/8 11:51,2025/8/8 12:20,outline_inst_tl,Array,21329,NULL,NULL,NULL,NULL,NULL,NULL
NULL,survey-html-form,3,506865,0.0-3.0,2100161,outline,2025/8/8 11:51,2025/8/8 12:20,outline_task,NULL,NULL,Array,"・男は長らく愛猫の死に心を痛めていた。
・ある朝、男は１匹の野良猫と出会う。
・男は、野良猫を見て、愛猫を思い出す。
・男は、猫のお腹の模様を見て、愛猫の生まれ変わりだと確信する。
・今度こそ、この子のために精一杯のことをしてやろうと、男は決意する。
",NULL,NULL,NULL,NULL
NULL,instructions,4,515039,0.0-4.0,2100161,outline,2025/8/8 11:51,2025/8/8 12:20,main_task_inst_tl,Array,8173,NULL,NULL,NULL,NULL,NULL,NULL
NULL,html-keyboard-response,5,1715043,0.0-5.0,2100161,outline,2025/8/8 11:51,2025/8/8 12:20,writing_block,NULL,NULL,NULL,NULL,"その人は、猫が大好きでした。生まれてこの方、猫と一緒に暮らすのが当たり前で、猫なしの生活は、考えられない程でした。そんな彼が、人生で何度目かの愛猫との別れを経験し、その悲しみから、未だ立ち直れずにいた時のお話。
早朝、何かが窓のガラスをひっかく音で、彼は目覚めました。「何の音だろう・・・」　眠い目をこすりながら、窓に目をやると、そこには何と真っ白い子猫が、一生懸命、窓を開けてくれと言わんばかりに、ガラスを引っ?いているではありませんか。彼は驚き、立ちどころに窓へ行き、２人の目が合うと、子猫は逃げることなく、「にゃー」と大きな声で鳴きました。そこで彼は、猫のために冷蔵庫へ牛乳を取りに行きました。「まだ待ってるかな？」と思いながら、窓へ近づくと、果たして、ちんまりと座り、こちらを眺める子猫がいました。そっと牛乳の入った皿を差し出し、「どこの子？どっからきたの？」と男は優しい言葉を掛けました。子猫は一心不乱に牛乳を舐め続け、とうとう、最後の１滴まで舐めつくしました。子猫が満足気に顔を洗い、毛づくろいをしている様子を、彼は眺めながら、ふとあることに気が付き、驚きました。子猫のお腹には、ハートマークの模様があり、それはなんと、以前に飼っていた愛猫とそっくりではありませんか。不思議な偶然もあるもんだなと、思いながら眺めてると、彼は一つのことを思い出しました。彼は愛猫との死に際の際、もう１度一緒に住むこと、その際には、愛猫だと分かる印をつけて生まれ変わるよう、愛猫に話していたのでした。彼は思いました。「これは愛猫のうまれ」
",1200003,9200,NULL
NULL,html-keyboard-response,6,1718056,0.0-6.0,2100161,outline,2025/8/8 11:51,2025/8/8 12:20,debrief,NULL,3013, ,NULL,NULL,NULL,NULL,<p style='text-algin:left'>これで実験は終了です。お疲れ様でした。</p><p style='text-algin:left'>スペースキーを押して、謝金の支払いに関わる最後の質問に移行してください。</p>
1,preload,0,7,0.0-0.0,5364686,outline,2025/8/8 12:18,2025/8/8 12:40,NULL,NULL,NULL,NULL,NULL,NULL,NULL,NULL,NULL
1,fullscreen,1,5112,0.0-1.0,5364686,outline,2025/8/8 12:18,2025/8/8 12:40,FullScreen,NULL,NULL,NULL,NULL,NULL,NULL,NULL,NULL
NULL,instructions,2,79332,0.0-2.0,5364686,outline,2025/8/8 12:18,2025/8/8 12:40,outline_inst_tl,Array,74219,NULL,NULL,NULL,NULL,NULL,NULL
NULL,survey-html-form,3,559335,0.0-3.0,5364686,outline,2025/8/8 12:18,2025/8/8 12:40,outline_task,NULL,NULL,Array,"・もしもあの時、こうしていれば
・昔、小学生の時に友達と喧嘩をして、それ以来一度も口をきいていない
・なんの理由で喧嘩したのか思い出せない
・今は後悔している
・もしタイムスリップできて、当時に戻ることができたら
・喧嘩の理由を把握し、喧嘩を回避できたはず
・友達と今も仲良しの、別の世界に到達できている
・その先の幸せな世界を生きられるはずだ
・今現在の僕と、その世界の僕は、どう違っているのだろうか？
",NULL,NULL,NULL,NULL
NULL,instructions,4,615894,0.0-4.0,5364686,outline,2025/8/8 12:18,2025/8/8 12:40,main_task_inst_tl,Array,56558,NULL,NULL,NULL,NULL,NULL,NULL
NULL,html-keyboard-response,5,1315008,0.0-5.0,5364686,outline,2025/8/8 12:18,2025/8/8 12:40,writing_block,NULL,NULL,NULL,NULL,"話は僕が小学5年生の時だった。僕には親友と呼べる大切なクラスメートがいた。ある夏の日、彼と僕は盛大な喧嘩をして、それから仲たがいしたまま時間が過ぎ、以来口をきいていない。そしてそれから10年が過ぎ、お互い別の高校に通っており、会うことすらない。
今になって思うのだ。いったい僕たちはなぜ喧嘩したのだろうか？それがどうしても思い出せない。
思い出せないということは、実はたいした理由ではなかったのでは？

また夏がやってきて、ある朝起きると僕は小学生に戻っていた。カレンダーの日付はあの日、あの喧嘩の日だ！
僕は覚悟を決めて、学校へ向かうべく、ランドセルを背負った。

思い出した、彼との喧嘩は給食の後の昼休み時間だ。
いよいよその時間がくると、教室の前の廊下で僕は彼と対峙していた。
お互いの顔を見合わせて、何も言わない僕たち。

何だろう？何も起きないぞ？
どうやって、何を切り出せばよいのだろう？
時間はそのまま刻々と過ぎ、僕たちはなぜか同時に笑ってしまった。

「お前もじゃないのか」「なんだ、お前もか」
僕たちはどうやら、同じタイミングでタイムリープしていた。
そして僕も彼も、なぜ喧嘩したのか、まったく覚えがなかったのだ。
盛大に笑った。涙を流して、肩を抱き合って笑った。

それからまた10年が過ぎた。
僕たちの友情は未だに続いている。
",699112,7787,NULL
NULL,html-keyboard-response,6,1318238,0.0-6.0,5364686,outline,2025/8/8 12:18,2025/8/8 12:40,debrief,NULL,3229, ,NULL,NULL,NULL,NULL,<p style='text-algin:left'>これで実験は終了です。お疲れ様でした。</p><p style='text-algin:left'>スペースキーを押して、謝金の支払いに関わる最後の質問に移行してください。</p>
1,preload,0,24,0.0-0.0,4008717,outline,2025/8/8 12:36,2025/8/8 12:58,NULL,NULL,NULL,NULL,NULL,NULL,NULL,NULL,NULL
1,fullscreen,1,8005,0.0-1.0,4008717,outline,2025/8/8 12:36,2025/8/8 12:58,FullScreen,NULL,NULL,NULL,NULL,NULL,NULL,NULL,NULL
NULL,instructions,2,70429,0.0-2.0,4008717,outline,2025/8/8 12:36,2025/8/8 12:58,outline_inst_tl,Array,62425,NULL,NULL,NULL,NULL,NULL,NULL
NULL,survey-html-form,3,550453,0.0-3.0,4008717,outline,2025/8/8 12:36,2025/8/8 12:58,outline_task,NULL,NULL,Array,ある森に住んでいるネズミのチュウ子が人間の住む都会に行って巨大なチーズを自分の街に持ち帰ろうと冒険に出る。しかしそこまでたどり着くにはとても大変で、人間に襲われそうになったり、犬に追いかけ回されたりととても危険な目に合うのでした。しかし、危険な目に合う中一人の男の子がチュウ子を助けてくれました。そこから男の子と仲良くなり、その男,NULL,NULL,NULL,NULL
NULL,instructions,4,591443,0.0-4.0,4008717,outline,2025/8/8 12:36,2025/8/8 12:58,main_task_inst_tl,Array,40990,NULL,NULL,NULL,NULL,NULL,NULL
NULL,html-keyboard-response,5,1273996,0.0-5.0,4008717,outline,2025/8/8 12:36,2025/8/8 12:58,writing_block,NULL,NULL,NULL,NULL,"ある森に住んでいるネズミのチュウ子は活発で元気な女の子です。そのチュウ子は自分の街に大きなチーズを持ち帰りたいと思い人間の街へと冒険に出かけました。
しかし、その道はとても険しく犬や人間に追いかけ回されとても危険な目に合わされました。
ですがチュウ子は諦めず大きなチーズを持ち帰るためにチーズ屋に向かいました。
そしてやっと辿り着いたチーズ屋で大きなチーズを見つけたものの持ち帰る事ができません。
悩んでいるチュウ子を見つけた店の亭主がチュウ子を見つけました。
チュウ子は襲われると思いましたが店の亭主は優しくチュウ子にどうしたのかと話かけました。
チュウ子は亭主に事情を説明をすると、亭主は一緒に大きいチーズをチュウ子の街へと持って行ってくれると行ってくれました。
そしてチュウ子と亭主は大きなチーズを街へ持っていき街のみんなに大喜びされたのでした。",682552,34065,NULL
NULL,html-keyboard-response,6,1275954,0.0-6.0,4008717,outline,2025/8/8 12:36,2025/8/8 12:58,debrief,NULL,1956, ,NULL,NULL,NULL,NULL,<p style='text-algin:left'>これで実験は終了です。お疲れ様でした。</p><p style='text-algin:left'>スペースキーを押して、謝金の支払いに関わる最後の質問に移行してください。</p>
1,preload,0,42,0.0-0.0,6179110,outline,2025/8/8 12:33,2025/8/8 13:00,NULL,NULL,NULL,NULL,NULL,NULL,NULL,NULL,NULL
1,fullscreen,1,5321,0.0-1.0,6179110,outline,2025/8/8 12:33,2025/8/8 13:00,FullScreen,NULL,NULL,NULL,NULL,NULL,NULL,NULL,NULL
NULL,instructions,2,305166,0.0-2.0,6179110,outline,2025/8/8 12:33,2025/8/8 13:00,outline_inst_tl,Array,299844,NULL,NULL,NULL,NULL,NULL,NULL
NULL,survey-html-form,3,785236,0.0-3.0,6179110,outline,2025/8/8 12:33,2025/8/8 13:00,outline_task,NULL,NULL,Array,"・小学五年生のしゅうはいじめられっこでとっても臆病で友達もおらずいつも一人
・ある時転んで頭をうってしまい、それ以来なぜか幽霊が見えるようになる
・最初しゅうは怖がって幽霊から逃げ回っていたが、ある時記憶喪失の幽霊の少年に出会う
・自分が誰かも困っている少年に力を貸すことになったしゅう
・二人は幽霊たちが持ち込む色々な問題を解決しつつ、「幽太」と名付けた幽霊の少年の記憶の痕跡をたどっていく
・実は幽太は死んでおらず病院で眠り続けていることが判明し、幽太は体にもどる
・最後はしゅうは幽霊たちとの触れ合いで人間的に強くなりいじめっこを見返し、幽太と親友になる",NULL,NULL,NULL,NULL
NULL,instructions,4,834779,0.0-4.0,6179110,outline,2025/8/8 12:33,2025/8/8 13:00,main_task_inst_tl,Array,49489,NULL,NULL,NULL,NULL,NULL,NULL
NULL,html-keyboard-response,5,1635629,0.0-5.0,6179110,outline,2025/8/8 12:33,2025/8/8 13:00,writing_block,NULL,NULL,NULL,NULL,"ぼくは弱虫だ。
たとえば車のクラクションや人の怒鳴り声なんかの大きな音、人の目線、授業で先生にあてられること、それに小さな虫だって僕にとっては恐怖の対象でしかない。
どんなことに対してもびくびく怯えることしかできないぼくを、学校のみんなは「ビビり」だって馬鹿にして笑ってる。
でも言い返したりはできない。だって怖いから。
そんなぼくにとんでもないことが起きたのは、ある日の放課後のことだった。
今日も先生に授業中にあてられて応えられなっかたことに意気消沈しながらとぼとぼと歩いていると、階段を踏み外してまっさかさま。
頭を強か打ち付けてしまった。
一瞬意識が飛んでいたけれど、すぐの気が付いた。
幸い周りにはだれもいなくて気付かれなかったみたいだけど、はずかしくて、あわてて走って帰った。
異変はすぐにおとずれた。
なんと幽霊が見えるようになってしまったのだ。
もちろんぼくは幽霊だって怖い。めちゃくちゃ怖い。
びびり散らかして逃げ回っていたけれど、ある時同い年位の少年にであった。
彼はどうやら記憶喪失で行く場所がなくて、成仏もできず困っているらしい。
ぼくは仕方なく彼の記憶探しの旅を手伝った。
「幽太」と名付けた彼はとても明るく元気で、良いやつだった。
二人で色々な困難を乗り越え、ついの僕たちは幽太の正体にtたどりついた。
彼は事故にあって眠り続けていたのだ。
幽太は体に戻り、ぼくは改めて彼と友達になった。
幽霊たちとの触れ合いでちょっとやそっとのことでは怖がらなくなったぼくは、いじめっこたちにも言い返せるようになって少しだけ強くなった自分を誇らしく思った。",800810,9157,NULL
NULL,html-keyboard-response,6,1637933,0.0-6.0,6179110,outline,2025/8/8 12:33,2025/8/8 13:00,debrief,NULL,2281, ,NULL,NULL,NULL,NULL,<p style='text-algin:left'>これで実験は終了です。お疲れ様でした。</p><p style='text-algin:left'>スペースキーを押して、謝金の支払いに関わる最後の質問に移行してください。</p>
1,preload,0,14,0.0-0.0,62735,outline,2025/8/8 12:31,2025/8/8 13:01,NULL,NULL,NULL,NULL,NULL,NULL,NULL,NULL,NULL
1,fullscreen,1,5106,0.0-1.0,62735,outline,2025/8/8 12:31,2025/8/8 13:01,FullScreen,NULL,NULL,NULL,NULL,NULL,NULL,NULL,NULL
NULL,instructions,2,88481,0.0-2.0,62735,outline,2025/8/8 12:31,2025/8/8 13:01,outline_inst_tl,Array,83374,NULL,NULL,NULL,NULL,NULL,NULL
NULL,survey-html-form,3,568484,0.0-3.0,62735,outline,2025/8/8 12:31,2025/8/8 13:01,outline_task,NULL,NULL,Array,"・熊五郎と八兵衛の2人は、酒飲み友達
・いつも通り居酒屋で一緒に酒を飲んで気分良く酔ったあと、帰り道で財布を拾う
・中にはそれなりのお金が入っていて、2人はそれをちょろまかして次の酒代にしようとする
・それを見ていた別の男が2人に近づいて、言葉巧みにそのお金を取ろうとする
・酔っ払っている2人はまんまと騙されてお金を取られてしまう
・",NULL,NULL,NULL,NULL
NULL,instructions,4,611938,0.0-4.0,62735,outline,2025/8/8 12:31,2025/8/8 13:01,main_task_inst_tl,Array,43452,NULL,NULL,NULL,NULL,NULL,NULL
NULL,html-keyboard-response,5,1811940,0.0-5.0,62735,outline,2025/8/8 12:31,2025/8/8 13:01,writing_block,NULL,NULL,NULL,NULL,"熊五郎と八兵衛は、近所でもよく知られた酒飲みで、いつも一緒に居酒屋で酒を飲んでいた。
雨の日も風の日も、二人は一緒に酒を飲むことが楽しく、人生で最大の楽しみとさえ考えていた。

ある日、いつものように二人は居酒屋で酒を飲み気分良く酔っ払い、楽しい時間を過ごした。
その帰り道、二人は千鳥足で歩いていると落ちている財布を見つけた。
熊五郎が「お、どっかの馬鹿が財布を落としてらぁ！」そう言ってその財布を拾い上げると、それに気付いた八兵衛が「何だ何だ？」と近寄ってくる。
熊五郎が拾った財布を開けると、中には2人が数日かけて稼ぐような大金が入っていた。
二人はそれを見て「おい、どうするよ」と顔を見合わせる。
そのうち、八兵衛はこんなことを言い出した。
「これ、もらっちまって次の酒代にしようや」
二人が何日もかけて稼ぐような大金、すっかり夜も更けた時間、辺りには誰もいない、ちょっと魔が差すには条件が揃っていた。
普段はよく言えば善人、悪く言えば悪事が出来ない小市民気質の熊五郎も、このような条件で八兵衛に促されたらちょっとぐらい悪い方に引っ張られるのもしょうがないというもの。
二人はそれを懐にしまってその場を離れようとした。

その時、二人に「ちょいとお待ちよ、お二人さん」声をかけてきた男がいた。
キツネのような目つきをしたその男は、驚いた顔をする二人を見てにやりとして、こう言葉を続ける。
「その財布、あっしに預けてみちゃどうですかい？ 明日の晩には倍にしてお渡ししますよ」
熊五郎と八兵衛は相手の男を上から下まで",1200001,5305,NULL
NULL,html-keyboard-response,6,1814848,0.0-6.0,62735,outline,2025/8/8 12:31,2025/8/8 13:01,debrief,NULL,2907, ,NULL,NULL,NULL,NULL,<p style='text-algin:left'>これで実験は終了です。お疲れ様でした。</p><p style='text-algin:left'>スペースキーを押して、謝金の支払いに関わる最後の質問に移行してください。</p>
1,preload,0,27,0.0-0.0,312376,outline,2025/8/8 12:33,2025/8/8 13:03,NULL,NULL,NULL,NULL,NULL,NULL,NULL,NULL,NULL
1,fullscreen,1,8098,0.0-1.0,312376,outline,2025/8/8 12:33,2025/8/8 13:03,FullScreen,NULL,NULL,NULL,NULL,NULL,NULL,NULL,NULL
NULL,instructions,2,94895,0.0-2.0,312376,outline,2025/8/8 12:33,2025/8/8 13:03,outline_inst_tl,Array,86795,NULL,NULL,NULL,NULL,NULL,NULL
NULL,survey-html-form,3,574898,0.0-3.0,312376,outline,2025/8/8 12:33,2025/8/8 13:03,outline_task,NULL,NULL,Array,"世界には法を犯した者が集められる大陸から遠く離れた島がある。
島の外周には高い壁が設置されていて脱出はできない。
その島では何をしてもとがめられることがない。
自由だがそれは他者も同じなので自身の身の安全は保障されない。
主人公は知恵を使って生き抜くすべを探求していく。
主人公に待ち受ける運命とは？
",NULL,NULL,NULL,NULL
NULL,instructions,4,609898,0.0-4.0,312376,outline,2025/8/8 12:33,2025/8/8 13:03,main_task_inst_tl,Array,34996,NULL,NULL,NULL,NULL,NULL,NULL
NULL,html-keyboard-response,5,1809900,0.0-5.0,312376,outline,2025/8/8 12:33,2025/8/8 13:03,writing_block,NULL,NULL,NULL,NULL,日本人の央介は証券会社で働くごく普通のサラリーマンだ。ある日仕事場に捜査員が来て央介は逮捕されてしまう。容疑はインサイダー取引疑惑だ。央介には身に覚えがなかったが、捜査員に促されるまま車に乗せられてしまう。車中ではなぜか目隠しとヘッドホンを装着させられ長いことどこかに運ばれているようだった。状況に慣れてきてうとうとしだすと突然捜査員に起こされ目隠しとヘッドホンを外された。眩しさに少し目が眩みながら辺りを見回すとごつごつとした岩があるだけの荒野だった。捜査員に告げられる「刑期満了まで生き抜いてください」訳が分からず何が起きているのか尋ねようとしたが捜査員たちはすぐに去って行ってしまった。しばらく呆然としていたが空腹とのどの渇きを感じ辺りをさまよい始める。どのくらい歩いただろうか、気づくと木々が生い茂る森の中だった。央介は小川を見つけがむしゃらに渇きをいやした。人心地つくと後ろで物音がし振り返った。そこには同年代くらいの女性がこちらをうかがっており何かを判断するかのようなまなざしで央介をみつめていた。央介は尋ねた「ここはどこですか？」女性は逡巡し答える。「ここはアウトローアイランド呼ばれる島です」と。訳が分からなかった。島？アウトローアイランド？央介は混乱していると突然女性がおうす,1200001,9500,NULL
NULL,html-keyboard-response,6,1813899,0.0-6.0,312376,outline,2025/8/8 12:33,2025/8/8 13:03,debrief,NULL,3996, ,NULL,NULL,NULL,NULL,<p style='text-algin:left'>これで実験は終了です。お疲れ様でした。</p><p style='text-algin:left'>スペースキーを押して、謝金の支払いに関わる最後の質問に移行してください。</p>
1,preload,0,17,0.0-0.0,5108776,outline,2025/8/8 12:43,2025/8/8 13:05,NULL,NULL,NULL,NULL,NULL,NULL,NULL,NULL,NULL
1,fullscreen,1,6619,0.0-1.0,5108776,outline,2025/8/8 12:43,2025/8/8 13:05,FullScreen,NULL,NULL,NULL,NULL,NULL,NULL,NULL,NULL
NULL,instructions,2,58772,0.0-2.0,5108776,outline,2025/8/8 12:43,2025/8/8 13:05,outline_inst_tl,Array,52149,NULL,NULL,NULL,NULL,NULL,NULL
NULL,survey-html-form,3,538776,0.0-3.0,5108776,outline,2025/8/8 12:43,2025/8/8 13:05,outline_task,NULL,NULL,Array,"ドイツにダルという船乗りの若者がいた。
ダルの乗る船は、ある日大時化に合い難破した。
気が付くとダルは見知らぬ島の浜に打ち上げられていた。
必死に生き抜こうとするダル。
危険な生物と闘うダル。
時の感覚は薄れ10年が過ぎていた。
10年後、水平線のかなたに貨物船が見えた。
貨物船に気付くも、ダルは助けを求めず島で生きることを決めた。",NULL,NULL,NULL,NULL
NULL,instructions,4,580403,0.0-4.0,5108776,outline,2025/8/8 12:43,2025/8/8 13:05,main_task_inst_tl,Array,41623,NULL,NULL,NULL,NULL,NULL,NULL
NULL,html-keyboard-response,5,1300834,0.0-5.0,5108776,outline,2025/8/8 12:43,2025/8/8 13:05,writing_block,NULL,NULL,NULL,NULL,"16世紀、世界が丸いことを知った西洋人は、見知らぬ土地を求めて船を大海原へと繰り出していた。
ドイツにダルという名前の船乗りがいた。
ダルは18歳になったばかりで、世界の果てに興味を持つ青年だった。
ある日、ダルの乗っている船は大時化に合い難破をしてしまった。帆を畳み、船を軽くするために積荷を捨て、船長の指示のもと必死にうごきまわるも虚しく、船は大破してしまいダルは海へと投げ出された。
溺れまいとするダルに、非情にも高波が襲い掛かる。
ダルは意識を失った。
気が付くとダルは、知らない浜辺に打ち上げられていた。
散策すると、小さな無人島のようだ。
ダルは火をおこすことで、身を守ることと清潔な水を手に入れることを考えた。
無事火を起こせたダルは、その夜は疲れて眠ってしまった。
静けさの中、奇妙な音でダルは目を覚ました。
クロヒョウだ。
必死になって、火のついた棒で応戦するダル。
クロヒョウは自ら崖から落ちてしまった。
食べ物を探すダル。
故郷を思い涙を流したり、大声で叫んだり、のろしを焚いて避難信号を送ったりもした。
しかし、何も起こらなかった。
月日は経ち、10年もの年月が流れていた。
ある日、ダルは水平線の彼方に貨物船をみた。
貨物船に一瞥をくれると、ダルは島の奥へとのろのろと去っていくのであった。",720430,11114,NULL
NULL,html-keyboard-response,6,1303506,0.0-6.0,5108776,outline,2025/8/8 12:43,2025/8/8 13:05,debrief,NULL,2671, ,NULL,NULL,NULL,NULL,<p style='text-algin:left'>これで実験は終了です。お疲れ様でした。</p><p style='text-algin:left'>スペースキーを押して、謝金の支払いに関わる最後の質問に移行してください。</p>
1,preload,0,12,0.0-0.0,6205903,outline,2025/8/8 12:37,2025/8/8 13:07,NULL,NULL,NULL,NULL,NULL,NULL,NULL,NULL,NULL
1,fullscreen,1,5435,0.0-1.0,6205903,outline,2025/8/8 12:37,2025/8/8 13:07,FullScreen,NULL,NULL,NULL,NULL,NULL,NULL,NULL,NULL
NULL,instructions,2,77330,0.0-2.0,6205903,outline,2025/8/8 12:37,2025/8/8 13:07,outline_inst_tl,Array,71895,NULL,NULL,NULL,NULL,NULL,NULL
NULL,survey-html-form,3,557334,0.0-3.0,6205903,outline,2025/8/8 12:37,2025/8/8 13:07,outline_task,NULL,NULL,Array,"・竜也は生まれつき左手が不自由な高校生である
・不自由な手をもろともせず、野球部に所属して大好きな野球に打ち込んでいる
・ポジションはピッチャーで5番を打っている
・高校生では最後となる大会で相手選手と交錯し右手を負傷する
・竜也は自分から野球を取ってしまうと何も残らないと思い、負傷した右手が痛むことを隠して試合に出続けた
・迎えた決勝戦で竜也は1対0で勝っていたが、9回裏に2アウト満塁のピンチを迎える
・ピンチを迎えた竜也を選手が囲んで励ましている
・周りの選手は「もう我慢しなくて良い」と竜也に声をかける
・竜也は涙を流しながら2番手ピッチャーに後を託した
・試合は結局負けてしまったがチームの皆は満足感を得ていた",NULL,NULL,NULL,NULL
NULL,instructions,4,600110,0.0-4.0,6205903,outline,2025/8/8 12:37,2025/8/8 13:07,main_task_inst_tl,Array,42774,NULL,NULL,NULL,NULL,NULL,NULL
NULL,html-keyboard-response,5,1800113,0.0-5.0,6205903,outline,2025/8/8 12:37,2025/8/8 13:07,writing_block,NULL,NULL,NULL,NULL,"「おいおい、あまり張り切り過ぎるなよ」
先ほどまで少し先を走っていた健司は竜也に声をかけた。
「だって来週から最後の大会だぜ。焦って仕方ないよ」と竜也。
竜也は生まれたときから左手が不自由であるが、小学生のころに野球と出会ってからずっと野球に熱中し続けている。体格が良い分、大人顔負けの肩を持ち、エースピッチャーとしてチームを牽引してきた。
来週からは高校生として最後の試合が始まる。

竜也が通う高校の野球部は地元では名門であり、例年通り順調に勝ち進んでいた。迎えた準々決勝で粘投を続けていた竜也は、試合の終盤で一塁線に転がるボールを拾って一塁を踏みに行ったところ、相手選手と交錯して倒れ込んだ。
「大丈夫か、竜也！」
内野手が駆け寄ってきて声をかける。
暫くうずくまっていた竜也は、すっと立ち上がると「ああ、何てことないよ」と、笑みを浮かべながら立ち上がった。
「今日は念のため休んどけ。お前以外にも投手はいるんだからな」と監督が竜也に声をかける。

ピッチャーが代わってからも何とか勝利を手にした竜也たちは、準決勝に駒を進める。
準決勝でも竜也は、相手選手と交錯して右手を痛めていることを隠して試合に出続け、遂に決勝戦に挑むこととなった。

決勝戦は手に汗握る投手戦で、9回の表にやっと竜也たちのチームが1点を挙げた。
粘りのピッチングを続ける竜也は、9回裏のツーアウトまでテンポよく進むものの、そこからフォアボールを3つ続けて出し、逆転のピンチを迎えた。
竜也の元に選手が集まる。
「竜也……もう我慢しなくて良いぞ」
「何のことを言っているんだ？」
「しらじらしいな。痛めてるんだろ、右手」
暫く黙る竜也。
「なんだ、バレてたのか」
",1200001,6852,NULL
NULL,html-keyboard-response,6,1803168,0.0-6.0,6205903,outline,2025/8/8 12:37,2025/8/8 13:07,debrief,NULL,3053, ,NULL,NULL,NULL,NULL,<p style='text-algin:left'>これで実験は終了です。お疲れ様でした。</p><p style='text-algin:left'>スペースキーを押して、謝金の支払いに関わる最後の質問に移行してください。</p>
1,preload,0,26,0.0-0.0,972848,outline,2025/8/8 12:39,2025/8/8 13:10,NULL,NULL,NULL,NULL,NULL,NULL,NULL,NULL,NULL
1,fullscreen,1,4094,0.0-1.0,972848,outline,2025/8/8 12:39,2025/8/8 13:10,FullScreen,NULL,NULL,NULL,NULL,NULL,NULL,NULL,NULL
NULL,instructions,2,74303,0.0-2.0,972848,outline,2025/8/8 12:39,2025/8/8 13:10,outline_inst_tl,Array,70207,NULL,NULL,NULL,NULL,NULL,NULL
NULL,survey-html-form,3,554311,0.0-3.0,972848,outline,2025/8/8 12:39,2025/8/8 13:10,outline_task,NULL,NULL,Array,"・アプリで出会った多重人格の彼との恋愛物語
・恋した彼は多重人格",NULL,NULL,NULL,NULL
NULL,instructions,4,643259,0.0-4.0,972848,outline,2025/8/8 12:39,2025/8/8 13:10,main_task_inst_tl,Array,88943,NULL,NULL,NULL,NULL,NULL,NULL
NULL,html-keyboard-response,5,1843265,0.0-5.0,972848,outline,2025/8/8 12:39,2025/8/8 13:10,writing_block,NULL,NULL,NULL,NULL,"私はどこの誰かかも分からない人と通話で繋がれるというアプリを使っていた。
ある日、繋がった20代前半の男性。

初めて会話をした日は、20代にしてはやけに幼くて、甘えん坊だなという印象だった。

お互い、楽しい時間を過ごせたので、また話そうね！と約束し、その日のやりとりを終えた。

少し時間が経ち、一週間後、また通話をする機会があった。

話し始めると、一回目に話した印象とは全く違う年相応の爽やかなお兄さんのような口調になっていた。


私は、あれ？なんか印象違うな・・と思いつつも、やはり話すのが楽しくて、深くは考えず通話していた。

そして、一回目の時は、音楽の話なんてしなかったのに、突然、電話口で弾き語りをしてくれた。ギャップにやられた私は既に夢中・・・。

そんな日々を続けていること一カ月。
私は、少しずつ不思議な気持ちになっていた。

通話する前の彼、毎回、初めましてのような空気を出してくる。なんだか、私の事を記憶の奥から引っ張り出しているような・・・。

とても不思議で、でも、私は毎回新鮮な気持ちで彼との通話を楽しんでいた。

ある日、いつもと全く違う雰囲気の彼が現れた。
どこかそっけなくて、冷たい。
初めは、気分屋な人なのかなと思って、様子を見ていたけれど、今まで続いていたやりとりは途絶えがちになった。

それでも、数日経つと、何事もなかったように、やりとりが
始まる。違和感の連続・・・。

彼と通話するようになってから、彼の中に、何人かの人物がいるように思えた。

もしかして彼って、多重人格？
私は、必死で多重人格（解離性同一性障害）について調べた。

やっぱり、そうだ。
彼自身は、自覚していないし、きっと診断も受けていない。

でも、一カ月以上彼と通話していたので、少しの変化に気付けたのだ。




",1200002,6275,NULL
NULL,html-keyboard-response,6,1848936,0.0-6.0,972848,outline,2025/8/8 12:39,2025/8/8 13:10,debrief,NULL,5666, ,NULL,NULL,NULL,NULL,<p style='text-algin:left'>これで実験は終了です。お疲れ様でした。</p><p style='text-algin:left'>スペースキーを押して、謝金の支払いに関わる最後の質問に移行してください。</p>
1,preload,0,14,0.0-0.0,109960,outline,2025/8/8 12:41,2025/8/8 13:14,NULL,NULL,NULL,NULL,NULL,NULL,NULL,NULL,NULL
1,fullscreen,1,14790,0.0-1.0,109960,outline,2025/8/8 12:41,2025/8/8 13:14,FullScreen,NULL,NULL,NULL,NULL,NULL,NULL,NULL,NULL
NULL,instructions,2,277077,0.0-2.0,109960,outline,2025/8/8 12:41,2025/8/8 13:14,outline_inst_tl,Array,262285,NULL,NULL,NULL,NULL,NULL,NULL
NULL,survey-html-form,3,757082,0.0-3.0,109960,outline,2025/8/8 12:41,2025/8/8 13:14,outline_task,NULL,NULL,Array,"・高い価格になったお米が備蓄米が供給されたことによって安価になったことで、コンビニにエンスストア本部に勤務する太郎は新たな商品開発を開始した。
・太郎は丼物、おにぎり、弁当、チャーハンなどの単品を考えたが、インパクトにどうしても欠けてしまう。
・街中にある町中華で飲食をしていると、良いとこどりごはんセットなるものを見つけて注文してみた。
・それは、かつ丼ハーフ・チャーハンハーフ・スープがセットになったもので、たっぷり食べたい人にとってはとても幸せに感じる商品だった。
・本部に戻った太郎は、「備蓄米ボリュームアップキャンペーン」を考案してかつ丼とチャーハンがセットになった商品などを考案し、その案が社内で通ったことで商品化に成功する。
・商品化したメニューは予想以上の大ヒットとなり、お米を使ったメニューをさらに開発することとなった。",NULL,NULL,NULL,NULL
NULL,instructions,4,799654,0.0-4.0,109960,outline,2025/8/8 12:41,2025/8/8 13:14,main_task_inst_tl,Array,42568,NULL,NULL,NULL,NULL,NULL,NULL
NULL,html-keyboard-response,5,1972274,0.0-5.0,109960,outline,2025/8/8 12:41,2025/8/8 13:14,writing_block,NULL,NULL,NULL,NULL,"コンビニエンスストア本部に勤務する太郎は商品開発部に所属しており、最近ニュースで話題になっている「備蓄米」を使った商品への有効活用を考えていた。
太郎は、丼物・チャーハン・おにぎりといった商品を開発してみたものの、陳腐な内容に偏ってしまったことで行き詰ってしまった。頭の中をリフレッシュ且つ商品開発に役立てるために、街中の中華料理店を訪問してランチメニューをチェックしてみたところ、「良いとこどりごはんセット」なるものを発見した。
その商品はかつ丼とチャーハンがそれぞれハーフサイズで、たっぷり食べたい人におすすめという店員からの紹介を聞いて、興味を持った太郎は注文してみた。
出てきた商品は、ハーフサイズより少し多めのかつ丼とチャーハンが皿に盛られたボリュームたっぷりで、その見た目に圧倒されてしまった。周りのお客さんも数人注文していたが、商品が提供されるたびに大きな声が上がっていたのが印象的だった。
量が多いだけで味は大したことがないのではという先入観で食べた見たところ、予想以上に美味しくてまたリピートしたい味だと感じた。
それに刺激を受けてコンビニエンスストア本部に戻った太郎は、商品開発を実施して「かつ丼・チャーハン欲張りセット」を完成させた結果、見事に商品として売られることとなった。備蓄米を活用したリーズナブルな価格のお米メニューということもあって、たっぷり食べたい方に人気・話題となり、第2弾のお米メニューを開発してほしいという要望がお客さんから多く出された。
第2弾として、肉とごはんがボリュームたっぷりの弁当を開発しており、どのような反応をお客さんが見せてくれるかが楽しみである。",1172618,11444,NULL
NULL,html-keyboard-response,6,1977389,0.0-6.0,109960,outline,2025/8/8 12:41,2025/8/8 13:14,debrief,NULL,5112, ,NULL,NULL,NULL,NULL,<p style='text-algin:left'>これで実験は終了です。お疲れ様でした。</p><p style='text-algin:left'>スペースキーを押して、謝金の支払いに関わる最後の質問に移行してください。</p>
1,preload,0,7,0.0-0.0,222621,outline,2025/8/8 12:38,2025/8/8 13:15,NULL,NULL,NULL,NULL,NULL,NULL,NULL,NULL,NULL
1,fullscreen,1,12144,0.0-1.0,222621,outline,2025/8/8 12:38,2025/8/8 13:15,FullScreen,NULL,NULL,NULL,NULL,NULL,NULL,NULL,NULL
NULL,instructions,2,923466,0.0-2.0,222621,outline,2025/8/8 12:38,2025/8/8 13:15,outline_inst_tl,Array,911320,NULL,NULL,NULL,NULL,NULL,NULL
NULL,survey-html-form,3,1403474,0.0-3.0,222621,outline,2025/8/8 12:38,2025/8/8 13:15,outline_task,NULL,NULL,Array,"・家猫の牛男（うしお）の名前の由来
・牛男の性格
・マリリンとの出会い
・牛男とマリリンが自分の名前を受け入れ、前に進むことの大切さを学ぶ。",NULL,NULL,NULL,NULL
NULL,instructions,4,1469331,0.0-4.0,222621,outline,2025/8/8 12:38,2025/8/8 13:15,main_task_inst_tl,Array,65857,NULL,NULL,NULL,NULL,NULL,NULL
NULL,html-keyboard-response,5,2249831,0.0-5.0,222621,outline,2025/8/8 12:38,2025/8/8 13:15,writing_block,NULL,NULL,NULL,NULL,"家猫の牛男（うしお）は、実はメス。
飼い主が、性別を確認せずに思いつくまま勝手に強そうな名前をつけてしまった。
でも、牛男は、とっても色気があり、顔を前足でなぞるしぐさを見るだけでもメスだとわかるくらいだ。
ある日、友人が猫を連れて遊びに来た。その猫は、すごく強そうでやさぐれた見た目。でも、友人は「マリリン」と呼んでいる。
マリリンという名前に違和感を覚えた牛男はマリリンに声をかけみた。
マリリンは、自分の名前を気に入っているようです。牛男は、名前って嫌じゃないのと尋ねてみた。マリリンは、名前は関係ないでしょ。ようは自分自身だよと簡単に答えた。牛男は、はっと気づかされたように感じた。自分の名前に引け目を感じていたことが恥ずかしくも感じた。マリリンの一言で目の前が明るく開けたように感じ、これからは自分自身を大切に生きていこうと心に決めた。",780498,4307,NULL
NULL,html-keyboard-response,6,2254027,0.0-6.0,222621,outline,2025/8/8 12:38,2025/8/8 13:15,debrief,NULL,4196, ,NULL,NULL,NULL,NULL,<p style='text-algin:left'>これで実験は終了です。お疲れ様でした。</p><p style='text-algin:left'>スペースキーを押して、謝金の支払いに関わる最後の質問に移行してください。</p>