success,trial_type,trial_index,time_elapsed,internal_node_id,ID,condition,StartTime,EndTime,task,view_history,rt,writing_txt,writing_duration_rt,pre_writing_pause,stimulus,response
1,preload,0,8,0.0-0.0,3124577,control,2025/8/8 11:36,2025/8/8 11:47,NULL,NULL,NULL,NULL,NULL,NULL,NULL,NULL
1,fullscreen,1,4640,0.0-1.0,3124577,control,2025/8/8 11:36,2025/8/8 11:47,FullScreen,NULL,NULL,NULL,NULL,NULL,NULL,NULL
NULL,instructions,2,65850,0.0-2.0,3124577,control,2025/8/8 11:36,2025/8/8 11:47,main_task_inst_tl,Array,61209,NULL,NULL,NULL,NULL,NULL
NULL,html-keyboard-response,3,659155,0.0-3.0,3124577,control,2025/8/8 11:36,2025/8/8 11:47,writing_block,NULL,NULL,"太郎はお父さんとお母さんの3人家族でした。
あるとき太郎に弟ができることが判りました。
太郎はとても嬉しくて弟が生まれてくる日を楽しみにしていました。
そして3か月後、ついに弟が生まれました。
太郎は弟が可愛くて可愛くて仕方がありませんでした。
太郎は毎日毎日弟の世話をして大切に扱っていました。
ですが暫くするとお母さんもお父さんも弟ばかり構っていて自分を構ってもらえず不満を抱くようになりました。
あまりにも弟ばかり構っていて太郎は寂しくて仕方がありませんでした。
そこで太郎は思いつきます。
弟が死んでしまえばお母さんもお父さんも自分の方を向いてくれるのではと。
そこで太郎は弟を殺す計画を立てました。
弟はいつもお母さんのおっぱいを飲んでいたので、太郎はお母さんのおっぱいに毒を塗ることにしました。
お母さんが眠っていることを確認すると太郎はお母さんのおっぱいに毒を塗りました。
これで明日、弟がおっぱいを飲めば毒で死んでしまうだろうと期待していました。
翌朝、太郎が目を覚ますと何とそこにはお父さんの死体が転がっていました。",593304,6666,NULL,NULL
NULL,html-keyboard-response,4,662228,0.0-4.0,3124577,control,2025/8/8 11:36,2025/8/8 11:47,debrief,NULL,3073,NULL,NULL,NULL,<p style='text-algin:left'>これで実験は終了です。お疲れ様でした。</p><p style='text-algin:left'>スペースキーを押して、謝金の支払いに関わる最後の質問に移行してください。</p>, 
1,preload,0,15,0.0-0.0,4983408,control,2025/8/8 2:50,2025/8/8 2:58,NULL,NULL,NULL,NULL,NULL,NULL,NULL,NULL
1,fullscreen,1,3008,0.0-1.0,4983408,control,2025/8/8 2:50,2025/8/8 2:58,FullScreen,NULL,NULL,NULL,NULL,NULL,NULL,NULL
NULL,instructions,2,27020,0.0-2.0,4983408,control,2025/8/8 2:50,2025/8/8 2:58,main_task_inst_tl,Array,24012,NULL,NULL,NULL,NULL,NULL
NULL,html-keyboard-response,3,524747,0.0-3.0,4983408,control,2025/8/8 2:50,2025/8/8 2:58,writing_block,NULL,NULL,"街外れにある小さな村に、一人の女の子がいました。魔法が使える世界にあるこの村の女の子は、魔法の勉強を毎日しています。今使える魔法は回復魔法。優しい女の子は自分の回復魔法を今以上に勉強をしたいと日々生きています。

こんな女の子は突然怪我をした男の子に出会いました。
「大丈夫？怪我はない？」
と聞くと、
「大したことない。イテテ。ちょっと転んで擦りむいただけ。こんなのへっちゃらさ。」
と女の子に良いところを見せたい一心で返事をしました。
女の子は男の子の怪我を治したい一心で回復魔法を使いました。男の子は女の子の優しさを覚えて心が温かくなりました。

女の子は回復魔法をもっと習得したい気持ちで、その後も魔法の勉強に専念しました。今は治癒魔法だけではなく、ステータス状態を維持する魔法も習得し始めています。",497725,3869,NULL,NULL
NULL,html-keyboard-response,4,526526,0.0-4.0,4983408,control,2025/8/8 2:50,2025/8/8 2:58,debrief,NULL,1777,NULL,NULL,NULL,<p style='text-algin:left'>これで実験は終了です。お疲れ様でした。</p><p style='text-algin:left'>スペースキーを押して、謝金の支払いに関わる最後の質問に移行してください。</p>, 
1,preload,0,6,0.0-0.0,3710758,control,2025/8/8 11:39,2025/8/8 11:49,NULL,NULL,NULL,NULL,NULL,NULL,NULL,NULL
1,fullscreen,1,2666,0.0-1.0,3710758,control,2025/8/8 11:39,2025/8/8 11:49,FullScreen,NULL,NULL,NULL,NULL,NULL,NULL,NULL
NULL,instructions,2,66163,0.0-2.0,3710758,control,2025/8/8 11:39,2025/8/8 11:49,main_task_inst_tl,Array,63497,NULL,NULL,NULL,NULL,NULL
NULL,html-keyboard-response,3,547699,0.0-3.0,3710758,control,2025/8/8 11:39,2025/8/8 11:49,writing_block,NULL,NULL,"私はいま、北海道に旅行に来ています。
この旅行の目的はおいしいものをたくさん食べることです。
海に面していない県に住んでいるので、おいしい海鮮をおなか一杯に食べたいと、一年近く前から計画をしていました。
やっぱり北海道と言えばカニですね！
あとはホタテとか雲丹とかお寿司が食べたいです。
あと、北海道は牛乳がおいしそうなイメージがあるので、生クリームを使ったスイーツやソフトクリームを食べ歩きしたいです。
旅行の日程が2泊3日なので食べ歩くのにも限界がありますが、できる限り北海道の食を満喫して帰りたいと思います。
という見知らぬ人のSNS投稿を見て、自分も北海道へ行きたくなりました。
最近は旅費がどんどん高くなってきているので、ぜひドラえもんにどこでもドアをお借りして、ドアを開けたら北海道であってほしいです。",481535,4486,NULL,NULL
NULL,html-keyboard-response,4,551053,0.0-4.0,3710758,control,2025/8/8 11:39,2025/8/8 11:49,debrief,NULL,3353,NULL,NULL,NULL,<p style='text-algin:left'>これで実験は終了です。お疲れ様でした。</p><p style='text-algin:left'>スペースキーを押して、謝金の支払いに関わる最後の質問に移行してください。</p>, 
1,preload,0,11,0.0-0.0,6233409,control,2025/8/8 11:37,2025/8/8 11:49,NULL,NULL,NULL,NULL,NULL,NULL,NULL,NULL
1,fullscreen,1,2980,0.0-1.0,6233409,control,2025/8/8 11:37,2025/8/8 11:49,FullScreen,NULL,NULL,NULL,NULL,NULL,NULL,NULL
NULL,instructions,2,36502,0.0-2.0,6233409,control,2025/8/8 11:37,2025/8/8 11:49,main_task_inst_tl,Array,33521,NULL,NULL,NULL,NULL,NULL
NULL,html-keyboard-response,3,715812,0.0-3.0,6233409,control,2025/8/8 11:37,2025/8/8 11:49,writing_block,NULL,NULL,"二匹の猫が並んで歩いていました。
オスの猫は黒色、メスの猫は白色をしています。
黒色のオス猫は白色のメス猫の事がとても好きです。

向かい側からオスのトラ猫が歩いてきました。
トラ猫は白色のメス猫をとても気に入ったようです。

黒猫とトラ猫は白猫をめぐってのライバル関係になりました。
二匹とも白猫に気に入られるように何かプレゼントをあげようと考えます。

黒猫は白猫のためにどこかからソーセージを探して持ってきました。
トラ猫は白猫のためにどこかから煮干しを探して持ってきました。

白猫はどちらを食べようか迷っています。

黒猫とトラ猫はじっと目を合わせてにらみ合いながら一歩もゆずらない気持ちです。

しばらくするといつの間にか白猫がいなくなっている事に気が付きました。
ソーセージと煮干しはそのまま残っています。

二匹は慌てて白猫を探しました。すると少し離れたところに白猫がいました。
よく見ると毛並みのいいオスのグレーの猫と一緒にいます。
そして、グレーの猫が持ってきた高級な肉をおいしそうに食べていました。

黒猫とトラ猫はがっかりしてお互い目を合わせ、仕方なく仲良くソーセージと煮干しを分け合って食べました。

その後黒猫とトラ猫はとても仲のいい大親友になりました。",679309,58025,NULL,NULL
NULL,html-keyboard-response,4,718861,0.0-4.0,6233409,control,2025/8/8 11:37,2025/8/8 11:49,debrief,NULL,3048,NULL,NULL,NULL,<p style='text-algin:left'>これで実験は終了です。お疲れ様でした。</p><p style='text-algin:left'>スペースキーを押して、謝金の支払いに関わる最後の質問に移行してください。</p>, 
1,preload,0,5,0.0-0.0,4960690,control,2025/8/8 11:40,2025/8/8 11:50,NULL,NULL,NULL,NULL,NULL,NULL,NULL,NULL
1,fullscreen,1,2860,0.0-1.0,4960690,control,2025/8/8 11:40,2025/8/8 11:50,FullScreen,NULL,NULL,NULL,NULL,NULL,NULL,NULL
NULL,instructions,2,33500,0.0-2.0,4960690,control,2025/8/8 11:40,2025/8/8 11:50,main_task_inst_tl,Array,30639,NULL,NULL,NULL,NULL,NULL
NULL,html-keyboard-response,3,566718,0.0-3.0,4960690,control,2025/8/8 11:40,2025/8/8 11:50,writing_block,NULL,NULL,"右下腹部に痛みを感じていたが放置していた。
最初は筋肉痛だと思っており特に何も気にしていなかった。
ちょうど妻が健康診断の結果を踏まえて、大腸内視鏡検査を受けていた。
自分ももしかしてと思い、大腸の不調を疑い始めた。
すぐに消化器内科を受診した。
念のため、大腸内視鏡を受けましょうということで、三週間後に決まった。
その後不安を抱えながらも日常を過ごしていたが、痛みが強くなってきた。
どう考えても筋肉的な痛みのため、腹壁瘢痕ヘルニアを疑った。
エコーで確認が取れないか、近所にクリニックを受診した。
大きな病院でCTをやらないとわからないということで紹介状をもらって予約を済ませた。
その予約日が来る前に、痛みが強く危機感を感じて受診した。
予約日前だが検査でき、その日は結果はわからなかった。
一週間後、MRIの結果が出て、原因が判明した。
腹斜筋断裂だった。
ホットしたが、３日後に大腸内視鏡検査を控えている。
原因は判明したからキャンセルするか悩んだ。
だが、せっかくだからと思い、気軽な気持ちで受けてみた。
すると、ポリープが見つかりその場で切除してもらった。
痛みの原因は、腹斜筋断裂だが、このポリープ切除は偶然にも見つかってラッキーだったといえる。
ちょうど妻の検査と腹斜筋断裂という何らかのシンクロニシティを感じる出来事だった。",533218,7341,NULL,NULL
NULL,html-keyboard-response,4,568703,0.0-4.0,4960690,control,2025/8/8 11:40,2025/8/8 11:50,debrief,NULL,1984,NULL,NULL,NULL,<p style='text-algin:left'>これで実験は終了です。お疲れ様でした。</p><p style='text-algin:left'>スペースキーを押して、謝金の支払いに関わる最後の質問に移行してください。</p>, 
1,preload,0,16,0.0-0.0,3260097,control,2025/8/8 11:37,2025/8/8 11:50,NULL,NULL,NULL,NULL,NULL,NULL,NULL,NULL
1,fullscreen,1,4847,0.0-1.0,3260097,control,2025/8/8 11:37,2025/8/8 11:50,FullScreen,NULL,NULL,NULL,NULL,NULL,NULL,NULL
NULL,instructions,2,63272,0.0-2.0,3260097,control,2025/8/8 11:37,2025/8/8 11:50,main_task_inst_tl,Array,58423,NULL,NULL,NULL,NULL,NULL
NULL,html-keyboard-response,3,778609,0.0-3.0,3260097,control,2025/8/8 11:37,2025/8/8 11:50,writing_block,NULL,NULL,"小さな子猫と独りぼっちで寂しい思いをしている少年が雨の中出会った。最初は全く子猫に興味がなかったが、自分と同じように一人でいる猫に親近感を覚え、いつしかこの子とずっと一緒にいたいと思うようになり、来る日も来る日も側にずっといた。時々ご飯をあげたりもした。

そんなある日、少年はいたはずの猫の姿を見失ってしまう。とても不安になりそこらじゅうを探し回っていると、いつの間にか母猫を見つけて一緒にいられるようになっていた。

心から良かったと思う反面、何だか自分だけ取り残されたような気持ちになり、また一人ぼっちの孤独を味わっていたら、今度はその母猫が少年の近くまで来てじっと見つめた後、ぺこりと人間のようにお辞儀をして子猫と一緒にその場を後にしていった。

自分に感謝してくれたのかな？僕は何かの役に立てた？そう思ったら急に嬉しくなり、自分でも誰かの役に立ったりできるんだと思うようになり、それ以来少年は積極的に人と話すことができるようになり、自分に自信がついて前よりもどんどん明るくなっていった。

人はひょんなことからか変わるきっかけを見つけることができ、それは人生のターニングポイントになることがある。

そんな教訓を肌で感じ、少年はよりいっそう誰かのために行動しようと思えるようになった。そんな成長物語。",715335,10736,NULL,NULL
NULL,html-keyboard-response,4,781247,0.0-4.0,3260097,control,2025/8/8 11:37,2025/8/8 11:50,debrief,NULL,2637,NULL,NULL,NULL,<p style='text-algin:left'>これで実験は終了です。お疲れ様でした。</p><p style='text-algin:left'>スペースキーを押して、謝金の支払いに関わる最後の質問に移行してください。</p>, 
1,preload,0,6,0.0-0.0,1274239,control,2025/8/8 11:39,2025/8/8 11:53,NULL,NULL,NULL,NULL,NULL,NULL,NULL,NULL
1,fullscreen,1,3101,0.0-1.0,1274239,control,2025/8/8 11:39,2025/8/8 11:53,FullScreen,NULL,NULL,NULL,NULL,NULL,NULL,NULL
NULL,instructions,2,34227,0.0-2.0,1274239,control,2025/8/8 11:39,2025/8/8 11:53,main_task_inst_tl,Array,31126,NULL,NULL,NULL,NULL,NULL
NULL,html-keyboard-response,3,831764,0.0-3.0,1274239,control,2025/8/8 11:39,2025/8/8 11:53,writing_block,NULL,NULL,"ある日の真夜中、どうしてもお腹が空いて台所でカップ麺を作ろうとしていた。

お湯を注いでふたを閉じ、キッチンタイマーを3分にセット。

タイマーが「ピッ」と鳴った瞬間どこからともなくドアベルが鳴った。

こんな時間に誰だろうと思って玄関を開けると、作業服を着た配達員が立っていた。

胸には「ラーメン納品部」と書かれたワッペン。

「お待たせしました、納期通りです」

配達員は両手で大きな箱を差し出してきた。

中には作りかけのカップ麺がぎっしり詰まっていて、すべてお湯を入れてちょうど3分経った状態らしい。

「いや、もう作ってあるんで…」と言うと、配達員は一枚の書類を見せた。

『契約書　第7条　3分後の納品義務』と書かれている。

「契約って…いつですか？」

配達員は少し困った顔で答えた。

「小学校3年生のとき、給食でラーメン食べましたよね？あれです。」

結局一晩で14個のカップ麺を食べきることになった。

翌朝食器棚を開けると中はどんぶり麺でぎっしり埋まっていて、そこには新しい書類が置かれていた。

「次回納期：明日3分後」

僕は「契約破棄させてくれぇ！」と頭を抱えた",797536,5705,NULL,NULL
NULL,html-keyboard-response,4,834269,0.0-4.0,1274239,control,2025/8/8 11:39,2025/8/8 11:53,debrief,NULL,2504,NULL,NULL,NULL,<p style='text-algin:left'>これで実験は終了です。お疲れ様でした。</p><p style='text-algin:left'>スペースキーを押して、謝金の支払いに関わる最後の質問に移行してください。</p>, 
1,preload,0,8,0.0-0.0,1966230,control,2025/8/8 11:42,2025/8/8 11:53,NULL,NULL,NULL,NULL,NULL,NULL,NULL,NULL
1,fullscreen,1,2590,0.0-1.0,1966230,control,2025/8/8 11:42,2025/8/8 11:53,FullScreen,NULL,NULL,NULL,NULL,NULL,NULL,NULL
NULL,instructions,2,57433,0.0-2.0,1966230,control,2025/8/8 11:42,2025/8/8 11:53,main_task_inst_tl,Array,54842,NULL,NULL,NULL,NULL,NULL
NULL,html-keyboard-response,3,700553,0.0-3.0,1966230,control,2025/8/8 11:42,2025/8/8 11:53,writing_block,NULL,NULL,"A子は楽しみにしていた映画を観にショッピングモールへと車で向かっていた。いつもの道路は通勤ラッシュなのか渋滞しており、ショッピングモールまではあと少しなのになかなか車が動かない状態が続いた。
時計を見ても開場時間の10分前が迫っていた。ようやく車が動き出してショッピングモールに着いたのは上映開始の2分前だった。
すぐに車を停めてトイレだけを済ませて、チケットの発券を行い、無事に座席に座ったのは上映開始時間だったけれど、なんとか間に合った。幸い映画が始まる前の予告映像ばかりがスクリーンに映し出されていたので、安堵したのだった。
車の中では何度も間に合うだろうかと冷や汗をかき、焦りを感じたA子だけれど、実際には間に合う事が出来ていた。ただし今回の事を教訓に、時間に余裕を持っていてもトラブルに巻き込まれる可能性を危惧しておかなければいけないと思うのであった。",643119,112272,NULL,NULL
NULL,html-keyboard-response,4,703515,0.0-4.0,1966230,control,2025/8/8 11:42,2025/8/8 11:53,debrief,NULL,2960,NULL,NULL,NULL,<p style='text-algin:left'>これで実験は終了です。お疲れ様でした。</p><p style='text-algin:left'>スペースキーを押して、謝金の支払いに関わる最後の質問に移行してください。</p>, 
1,preload,0,20,0.0-0.0,839571,control,2025/8/8 11:41,2025/8/8 11:57,NULL,NULL,NULL,NULL,NULL,NULL,NULL,NULL
1,fullscreen,1,4253,0.0-1.0,839571,control,2025/8/8 11:41,2025/8/8 11:57,FullScreen,NULL,NULL,NULL,NULL,NULL,NULL,NULL
NULL,instructions,2,63915,0.0-2.0,839571,control,2025/8/8 11:41,2025/8/8 11:57,main_task_inst_tl,Array,59662,NULL,NULL,NULL,NULL,NULL
NULL,html-keyboard-response,3,979031,0.0-3.0,839571,control,2025/8/8 11:41,2025/8/8 11:57,writing_block,NULL,NULL,"ある日宇宙に小さな花が咲いていました。
その小さな花はいつか別の星に行きたいと願っていました。
なぜなら、その小さな花は意思を持っており自分が新天地に旅建つことを夢に見ていたからでした。

ですが、その小さな花は所詮花なのでそこから動くことができませんでした。なので、宇宙の旅行者が自分のところに来て一緒に連れて行って欲しいと願っていました。

それしか、その小さな花が新天地に行く手段はなかったからです。そして、ついにその小さな花は新天地に旅立つチャンスがやってきました。

なぜなら、ついに宇宙の旅行者が自分のところに来てくれて自分を一緒に連れて行って欲しいと伝えることができるチャンスが来たからです。

そして、その小さな花は旅行者に自分も一緒に宇宙旅行に連れて行って欲しいと伝えました。

ですが、その旅行者はある条件を飲めば一緒に連れていくと言って無条件では連れていってくれませんでした。

花はどうしても新天地に行きたいと思っていたので、その旅行者の条件を飲みました。

そして、旅行者は花に対してそこから自力で動くことができたら一緒に連れて行ってやると言いました。

その話を聞いた花は一瞬絶望しました。
なぜなら、花は自力でそこから動くことができなかったからです。

ですが、花はがんばりました。
どうしても新天地に行きたいという情熱があったからです。
なので、花は自力でその場を動こうとしました。

でも、所詮は花なのでその場から動くことができないでいました。最初はその姿を見てどうせ無理だろうと笑って見ていた旅行者でしたが、その小さな花の必死な姿を見ているうちにその花を一緒に連れて行ってあげたくなりました。

そして、花を摘んで一緒に新天地にとｂ",915115,5735,NULL,NULL
NULL,html-keyboard-response,4,982457,0.0-4.0,839571,control,2025/8/8 11:41,2025/8/8 11:57,debrief,NULL,3424,NULL,NULL,NULL,<p style='text-algin:left'>これで実験は終了です。お疲れ様でした。</p><p style='text-algin:left'>スペースキーを押して、謝金の支払いに関わる最後の質問に移行してください。</p>, 
1,preload,0,4,0.0-0.0,3585633,control,2025/8/8 11:40,2025/8/8 11:57,NULL,NULL,NULL,NULL,NULL,NULL,NULL,NULL
1,fullscreen,1,2891,0.0-1.0,3585633,control,2025/8/8 11:40,2025/8/8 11:57,FullScreen,NULL,NULL,NULL,NULL,NULL,NULL,NULL
NULL,instructions,2,60043,0.0-2.0,3585633,control,2025/8/8 11:40,2025/8/8 11:57,main_task_inst_tl,Array,57152,NULL,NULL,NULL,NULL,NULL
NULL,html-keyboard-response,3,1064621,0.0-3.0,3585633,control,2025/8/8 11:40,2025/8/8 11:57,writing_block,NULL,NULL,"私は、暗い夜道をただひたすらに歩いていた。
ただまっすぐに、まっすぐに。
今が何時なのかさえ一切わからない。
極端に言えば、自分が誰なのかさえわかっていない。
ただただ、何かに追われているような気がして、焦っているのだけはわかっている。

何か心の中では、何とも言えない過去という恐怖から逃れているようにも感じた。
何分歩いたのだろう。私の前に赤い明りのついた建物が見えてきた。
それはとても不気味で、地獄の入り口のようにも感じた。
しかし、私の意思とは反して、私の足は無理やりにその建物にどんどんと近づいて行こうとする。

私は、自分の足をどうにかして止めるよう必死になったが、まったく言うことを聞いてくれない。

すると突然、肩にズンと大きなモノがのしかかるのを感じた。
そして、その瞬間、私は気を失ってしまったのだ。",1004577,8374,NULL,NULL
NULL,html-keyboard-response,4,1068243,0.0-4.0,3585633,control,2025/8/8 11:40,2025/8/8 11:57,debrief,NULL,3621,NULL,NULL,NULL,<p style='text-algin:left'>これで実験は終了です。お疲れ様でした。</p><p style='text-algin:left'>スペースキーを押して、謝金の支払いに関わる最後の質問に移行してください。</p>, 
1,preload,0,6,0.0-0.0,5398551,control,2025/8/8 11:37,2025/8/8 11:59,NULL,NULL,NULL,NULL,NULL,NULL,NULL,NULL
1,fullscreen,1,3514,0.0-1.0,5398551,control,2025/8/8 11:37,2025/8/8 11:59,FullScreen,NULL,NULL,NULL,NULL,NULL,NULL,NULL
NULL,instructions,2,125883,0.0-2.0,5398551,control,2025/8/8 11:37,2025/8/8 11:59,main_task_inst_tl,Array,122369,NULL,NULL,NULL,NULL,NULL
NULL,html-keyboard-response,3,1325886,0.0-3.0,5398551,control,2025/8/8 11:37,2025/8/8 11:59,writing_block,NULL,NULL,"時代ははるか未来、AIが今より発展し、ロボットとして、人間と区別がつかないほど進化し、独自の意識を持つほどになっている。それほどまでに進化した彼らには、人間の人権のような権利が認められ、人間と共存していた。
しかしAIは万能ではない。人間が時におかしくなり犯罪を犯すように、AIもまたその回路に変調をきたすことがあり、そうなった場合彼らは罪を犯してしまう。人間以上に強靭な機械の体を持つ彼ら、その蛮行を止めるには、これまでの警察機構とは異なる、彼ら専用の強力な抑止となるものが必要になった。そうして設立されたのが、対AI警察機構カウンターAI、『CAI』である。この物語はCAIに所属することとなった新人AIロボットである『ジャック』の、戦いと葛藤についてのものである。
新人であるジャックが配属された部署には、ベテランである『ブラウン』という高性能AIを搭載した特別なロボットが所属していて、ジャックは彼に教えを乞うことになった。ジャックは先輩であるブラウンに連れられて、ロボットが引き起こす危険な犯罪現場に何度も足を踏み入れることになる。やすやすと危険な犯罪AIロボットたちを武力で破壊し制圧してしまうブラウンに対して、トラブルにうまく対処できないジャック。それは新人ゆえの経験不足からだけではなく、彼は他のCAI職員のように簡単に武力をふるって他者を制圧することに疑問を抱いているためだ。「どうしてみんなそんなに簡単に相手を破壊できるんですか？」たまらずジャックはブラウンに質問した。それに対しブラウンは「何を言っているんだ。犯罪を犯している危険なロボットはすぐに対処し破壊しなければ、ロボットだけでなく人間にも危害を及ぼす可能性があるんだ。破壊するのが当然なんだ。それがオレたちの任務だろう。ジャック、お前が何を悩んでいるのか、オレにはわからない。」どうやらほかのAIロボットたちは、こんなことを思い悩むこと自体あり得ないことのようだ。同じAIロボットのはずなのに、自分だけどうしてこんなに悩んでしまうんだろう。そういうわけでジャックは仕事の成績はあまり",1200002,2791,NULL,NULL
NULL,html-keyboard-response,4,1328334,0.0-4.0,5398551,control,2025/8/8 11:37,2025/8/8 11:59,debrief,NULL,2446,NULL,NULL,NULL,<p style='text-algin:left'>これで実験は終了です。お疲れ様でした。</p><p style='text-algin:left'>スペースキーを押して、謝金の支払いに関わる最後の質問に移行してください。</p>, 
1,preload,0,34,0.0-0.0,2752457,control,2025/8/8 11:39,2025/8/8 12:00,NULL,NULL,NULL,NULL,NULL,NULL,NULL,NULL
1,fullscreen,1,6013,0.0-1.0,2752457,control,2025/8/8 11:39,2025/8/8 12:00,FullScreen,NULL,NULL,NULL,NULL,NULL,NULL,NULL
NULL,instructions,2,51120,0.0-2.0,2752457,control,2025/8/8 11:39,2025/8/8 12:00,main_task_inst_tl,Array,45107,NULL,NULL,NULL,NULL,NULL
NULL,html-keyboard-response,3,1251122,0.0-3.0,2752457,control,2025/8/8 11:39,2025/8/8 12:00,writing_block,NULL,NULL,ある日、日本のとある農村部に未知のウイルスが蔓延し始めた。そのウイルスに感染した者には、当初微熱が発症する。単なる風邪だろうとたかをくくっていると、その数日後に高熱・頭痛・悪寒・吐き気などの重症に発展していく。ついには吐血・目眩・意識混濁に陥り、最終的に絶命に至る。このウイルスの危機的猛威の前に、日本国内の名だたる医学者たちも全くなすすべがなかった。やがて新種のウイルスは、農村部を起点に日本国内のあらゆる地域へ感染範囲を広げていく。近隣の都市部でも感染者が現れると、自分も被害に遭うのではないかと恐れた者たちの間でパニックが広がり始める。事態を重く見た政府はウイルスの感染を食い止めるため、一人でも感染者が見つかった地域に近づかないようテレビやインターネットを通じて発信した。しかし、そんな政府の努力を嘲笑うかのようにウイルスの感染は止まる気配を見せない。多くの企業・学校・団体は一時的な閉鎖を余儀なくされ、日本社会は徐々に機能不全に陥っていく。そんな中、このウイルスに感染しても全く症状が出ない少年が現れる。彼には未知のウイルスに対する抗体があったのだ。少年の血液からウイルスのワクチンを生成できる可能性が浮上し、医学界はにわかに活気づく。ところが、ウイルスパニックで揺れる日本社会に突如降臨した謎の新興宗教団体が、少年を「悪魔の使い」だと名指しする。狂った信者たちは根も葉もない教祖の言葉を鵜呑みにし、あろうことか,1200001,5146,NULL,NULL
NULL,html-keyboard-response,4,1253714,0.0-4.0,2752457,control,2025/8/8 11:39,2025/8/8 12:00,debrief,NULL,2592,NULL,NULL,NULL,<p style='text-algin:left'>これで実験は終了です。お疲れ様でした。</p><p style='text-algin:left'>スペースキーを押して、謝金の支払いに関わる最後の質問に移行してください。</p>, 
1,preload,0,37,0.0-0.0,438363,control,2025/8/8 11:40,2025/8/8 12:00,NULL,NULL,NULL,NULL,NULL,NULL,NULL,NULL
1,fullscreen,1,4223,0.0-1.0,438363,control,2025/8/8 11:40,2025/8/8 12:00,FullScreen,NULL,NULL,NULL,NULL,NULL,NULL,NULL
NULL,instructions,2,68815,0.0-2.0,438363,control,2025/8/8 11:40,2025/8/8 12:00,main_task_inst_tl,Array,64591,NULL,NULL,NULL,NULL,NULL
NULL,html-keyboard-response,3,1201562,0.0-3.0,438363,control,2025/8/8 11:40,2025/8/8 12:00,writing_block,NULL,NULL,僕は川沿いをランニングするのが日課だった。サッカー部に入っているのだが、部活を終えた後も、足腰を鍛え、持久力を付けるために、一度家に帰った後も、こうしてランニングに励むのだった。ある日、何時ものように川沿いを走っていると突然、空が真っ黒な雲に覆われ、雷の音が響いてきた。大きな雨粒がポツポツと降ってきて、僕の顔に当たる。「雷雨だ」と慌てて、近くの大きな樹の下に雨宿りをした。雨は激しくなるばかりだった。雨具を持っていないため、このままここに止まるしかない。暗くなり視界が悪くなっていく川の景色を眺めながら、ため息をついた。川の水かさはみるみる増していく。その時だった。「そこにいては危険ですよ」激しい雷鳴や雨音に交じって、誰かが僕に呼びかける声がした。声のする方向に顔を向けると、赤い傘を差した女子高校生風の女の子がいた。「大きな木の傍にいると、そこに雷が落ちてくるかもしれません。私の傘に入ってください。一緒に安全な場所に移動しましょう」と彼女が言う。女子高生と相合傘！？何だか僕は気恥ずかしくなったが、危ないと言われれば、お言葉に甘えるしかないだろう。「ではこの先のコンビニエンスストアまで送ってもらえませんか？そこでビニール傘でも買えるので」。彼女はこくんと頷いた。歩ている間はずっとドキドキしていた。ようやくコンビニまで到着し、中に入る。しかし突然の雨でビニール傘が飛ぶように売れたらしく、1本も傘は残っていなかった。仕方がないのでコンビニで雨宿りをさせてもらうことにした。送ってくれた彼女にアイスでもおごってあげようと思って振り向くと、姿が見えない。コンビニの外を見たが、既に立ち去った後だったようだ。そのまま店で雨が止むのを待った。翌日、川沿いに行ってみると、僕が雨宿りをしていた大木が雷に打たれて、大きく割れて倒れていた。,1132746,4468,NULL,NULL
NULL,html-keyboard-response,4,1204936,0.0-4.0,438363,control,2025/8/8 11:40,2025/8/8 12:00,debrief,NULL,3372,NULL,NULL,NULL,<p style='text-algin:left'>これで実験は終了です。お疲れ様でした。</p><p style='text-algin:left'>スペースキーを押して、謝金の支払いに関わる最後の質問に移行してください。</p>, 
1,preload,0,10,0.0-0.0,1533311,control,2025/8/8 11:39,2025/8/8 12:00,NULL,NULL,NULL,NULL,NULL,NULL,NULL,NULL
1,fullscreen,1,3253,0.0-1.0,1533311,control,2025/8/8 11:39,2025/8/8 12:00,FullScreen,NULL,NULL,NULL,NULL,NULL,NULL,NULL
NULL,instructions,2,46850,0.0-2.0,1533311,control,2025/8/8 11:39,2025/8/8 12:00,main_task_inst_tl,Array,43596,NULL,NULL,NULL,NULL,NULL
NULL,html-keyboard-response,3,1247852,0.0-3.0,1533311,control,2025/8/8 11:39,2025/8/8 12:00,writing_block,NULL,NULL,おばあさんとおじいさんが川に洗濯に行きました。そこへ桃が流れてきましたが、二人とも見逃してしまいました。ある日、二人の元へ少年が現れました。少年は私は桃太郎だと自慢げに名乗りましたが、おじいさんとおばあさんは意味がわかりません。少年は二人に桃太郎の絵本を読んだことがないのかと尋ねました。二人は首を横に振りました。仕方なく少年は桃太郎という絵本を取り出しおじいさんとおばあさんに読み聞かせを始めました。すると二人はたいそう感激して少年にお礼を言いました。そして少年にもっと他にも絵本を読んでほしいと頼みました。少年は仕方なく他の物語についても語ってあげました。語っているうちに少年は自分以外にも浦島太郎や金太郎などいろいろなヒーローがいることに気付かされました。少年はおじいさんとおばあさんに桃太郎と自慢げに名乗るのはやめようと決心し、太郎と名乗ることにしました。やがて少年は太郎としておじいさんとおばあさんの子供になり鬼退治に行く必要もなく平和に暮らしました。,1201001,8843,NULL,NULL
NULL,html-keyboard-response,4,1250957,0.0-4.0,1533311,control,2025/8/8 11:39,2025/8/8 12:00,debrief,NULL,3104,NULL,NULL,NULL,<p style='text-algin:left'>これで実験は終了です。お疲れ様でした。</p><p style='text-algin:left'>スペースキーを押して、謝金の支払いに関わる最後の質問に移行してください。</p>, 
1,preload,0,13,0.0-0.0,4758400,control,2025/8/8 11:40,2025/8/8 12:01,NULL,NULL,NULL,NULL,NULL,NULL,NULL,NULL
1,fullscreen,1,4636,0.0-1.0,4758400,control,2025/8/8 11:40,2025/8/8 12:01,FullScreen,NULL,NULL,NULL,NULL,NULL,NULL,NULL
NULL,instructions,2,227672,0.0-2.0,4758400,control,2025/8/8 11:40,2025/8/8 12:01,main_task_inst_tl,Array,223036,NULL,NULL,NULL,NULL,NULL
NULL,html-keyboard-response,3,1256222,0.0-3.0,4758400,control,2025/8/8 11:40,2025/8/8 12:01,writing_block,NULL,NULL,"都内の路上。
とある人気女優が、帰路へと着いていた。
そんな時、道端で弱った黒猫を見つける。
明日は休みということもあって、彼女は自宅に連れ帰って看病した。
その猫は見る見る元気になり、彼女は安堵して床に就いた。
翌朝、彼女が目覚めると、何と頭には猫の耳が、腰には尻尾が付いていた。
すると、昨日助けた黒猫が、元気に人間の言葉を使って説明をする。
何と、助けてくれた恩返しとして、彼女がかつて猫になりたいと雑誌では発言していたことを真に受け、猫に変身させたのだ。
これでは困ると言った彼女は、元に戻る方法を黒猫に聞く。
曰く、元に戻るためには、離れてしまった群れを探さなけば行けないのだそうだ。
翌日以降、一人と一匹は、群れ探しに出かける。
様々な道行く野良猫に聞いた結果、都内の自然公園の森に集まることが分かった。
一人と一匹は、その日の夜中、森へ行くと、その黒猫と同じ言葉を話す猫がたくさんいた。
早速、そこにいるボス猫に、元に戻して欲しいと頼む彼女。
するとボス猫は、『この群れの猫とプロレスで勝負して勝てたら戻してやる』と提案。
ボス猫の魔法により完全に猫の姿となった彼女は、相棒の黒猫と共に、その群れ一番のコンビとキャットファイトプロレスのタッグマッチをすることに。
生まれて初めてのプロレスに苦戦するも、二匹は友情パワーによって、見事必殺技を繰り出し、KO勝利を収めた。
ボス猫は彼女を賞賛。
約束通り、彼女を元に戻してくれた。
そして別れの時、彼女は黒猫と言葉を交わし、目が覚めると自室のベッドに居た。
変な夢を見てしまったと思う彼女。
しかし枕元には、群れ探しをする際に黒猫に付けていたスカーフが置かれていた。
ほんのり臭う猫の匂いは、彼女のそれが夢でなかったことを如実に表していた。
今日もまた、彼女は女優としての日常に戻る。しかし、その胸には不思議な冒険の余韻で満たされていた。",1028548,14092,NULL,NULL
NULL,html-keyboard-response,4,1259282,0.0-4.0,4758400,control,2025/8/8 11:40,2025/8/8 12:01,debrief,NULL,3059,NULL,NULL,NULL,<p style='text-algin:left'>これで実験は終了です。お疲れ様でした。</p><p style='text-algin:left'>スペースキーを押して、謝金の支払いに関わる最後の質問に移行してください。</p>, 
1,preload,0,8,0.0-0.0,6337447,control,2025/8/8 11:41,2025/8/8 12:01,NULL,NULL,NULL,NULL,NULL,NULL,NULL,NULL
1,fullscreen,1,4525,0.0-1.0,6337447,control,2025/8/8 11:41,2025/8/8 12:01,FullScreen,NULL,NULL,NULL,NULL,NULL,NULL,NULL
NULL,instructions,2,124993,0.0-2.0,6337447,control,2025/8/8 11:41,2025/8/8 12:01,main_task_inst_tl,Array,120469,NULL,NULL,NULL,NULL,NULL
NULL,html-keyboard-response,3,1149296,0.0-3.0,6337447,control,2025/8/8 11:41,2025/8/8 12:01,writing_block,NULL,NULL,"科学的なエビデンスとか、万人における再現性がどこまであるかはわからないんだけど、「身近なものを使って無料で楽しく遊んでいるうちに、自然に脳のワーキングメモリも鍛えられるなら最高じゃね？」という可能性について。

まず、用意するのは、ランダムな「4桁の数字」。個人的におすすめなのは、「現在時刻」とか「街中でパッと目に入った車のナンバープレート」とかかな。
これを「足す・引く・掛ける・割る」ことで、最終的に「10」を作る、という遊び。数字を使う順番は、任意で考えてもOK。

例えば「1457」だったら（※たまたま今見た、課題の残り時間の表示があと14分57秒だったので）、
1+4＝5、7-5＝2、5×2＝10
終わり。のような形でやる。

他の例えとしては、「4646」を10にする場合、
6×6＝36、36+4＝40、40÷4＝10
のような、大きめの掛け算・割り算が綺麗にハマる場合もあって、そういう時の爽快感は実にイイ。

ひとつの「4桁」から10を作る方法が複数通りある場合もあるが、どんなに頑張っても10を作れない組み合わせの「4桁」も存在する。

この遊びの応用問題として、ウチの弟が高校の数学教師に出題された問題が、
同じようなルールで「3838で24を作れ」という無理難題だったらしい。
この遊び大好きな兄弟全員で散々頭を捻ったことがあるけど、一向に24は作れなかった。
そんな時、ふと「子供人格」状態になって思いついた答えが、
『3を1個ひっくり返して、もう1個の3とくっつけて「でっかい8」にして、あとの8ふたつ足したら24だよ」というものだった。（文字だけでイメージ映像浮かぶだろうか？）

全員、「参りました」と大爆笑。これが鉛直思考と水平思考の違いであり、クイズ脳とパズル脳の違いってやつか…と、我ながら感心・納得したのである。
この答えは数学的には完全アウトだけど、パズル的には文句ナシの大正解である。自分で言うのもなんだけど、こいつはマジで「マインドワンダリングのプロ」だろ…

ちなみに、どうしてもすっきりしないので、AIに「3838→24」の答えを出してもらったことがある。

数学的に正しい解法によると、
8÷（3-（8÷3））＝24
ということになるらしい。

でもAI自身も、この答えの体感としての「気持ちよさ指数」は3ぐらい。「でっかい8」解答の気持ちよさ指数は100億ぐらい。つまり、脳内映像で浮かぶ直感と破壊力が段違いで、むしろ真の勝者は圧倒的にこっちだと言ってくれたことがある。

なんだかすごく自信を持ててしまった。安心して「僕の勝ちだ」と思っておこう。",1024302,4305,NULL,NULL
NULL,html-keyboard-response,4,1169160,0.0-4.0,6337447,control,2025/8/8 11:41,2025/8/8 12:01,debrief,NULL,19863,NULL,NULL,NULL,<p style='text-algin:left'>これで実験は終了です。お疲れ様でした。</p><p style='text-algin:left'>スペースキーを押して、謝金の支払いに関わる最後の質問に移行してください。</p>, 
1,preload,0,9,0.0-0.0,3922243,control,2025/8/8 11:40,2025/8/8 12:01,NULL,NULL,NULL,NULL,NULL,NULL,NULL,NULL
1,fullscreen,1,3925,0.0-1.0,3922243,control,2025/8/8 11:40,2025/8/8 12:01,FullScreen,NULL,NULL,NULL,NULL,NULL,NULL,NULL
NULL,instructions,2,37869,0.0-2.0,3922243,control,2025/8/8 11:40,2025/8/8 12:01,main_task_inst_tl,Array,33943,NULL,NULL,NULL,NULL,NULL
NULL,html-keyboard-response,3,1237874,0.0-3.0,3922243,control,2025/8/8 11:40,2025/8/8 12:01,writing_block,NULL,NULL,"　目が覚めると、真っ白い何もない部屋にいた。
　自分がどうしてここにいるのかもよくわからない。
　今まで自分が何をしていたのか思い出そうとするが、頭に靄がかかったように記憶がぼんやりとしていた。

　しばらく部屋でぼーっとしていたが、ふと気が付くと部屋の真ん中に小さなテーブルがあった。
　先ほどまでは無かったはずなのに、と不思議に思いながら近づくと、テーブルの上には一枚の紙があった。


　「どうして」


　赤い文字でそれだけが書かれていた。
　なにがどうしてなのだろう？そして誰がこれを書いたのだろう。
　様々な疑問が湧き上がってくる。と同時になんだか胸騒ぎもする。

　しばしの間その紙を眺めていたが、ふと視線を上げると部屋の中に一つだけ扉が表れていた。
　何の変哲もない扉ではあったが、心の中ではなぜかその扉を開けてはいけないと強く警告されているような気がした。

　もう一度紙に視線を向ける。


　「どうして」


　赤くか細い字で書かれている。
　どうして。
　この字を見るととても胸がざわつく。

　しかしそうしていても部屋には何も変化はなく、一つため息をつくと、覚悟を決めて扉を開けてみることにした。


　扉をあけるとその先は真っ暗だった。
　かろうじて廊下であることはわかるが、何の明かりもなく、廊下の先がどうなっているのかもわからない。

　扉を開けたところで呆然と立ち尽くしていたが、ふと手からカサリと音がして我に返った。
　さきほどの紙をそのまま手に持っていたようだ。
　なんとなく嫌な感じはするが、それを手放す気にもなれず、紙を持って扉の先へと進むことにした。


　とても暗い廊下を壁に手を付きながらゆっくりと進む。
　ただ暗いだけで他の生き物の気配などはないが、なんだかひどく恐ろしい気持ちになる。


　「どうして」


　頭にあるのは紙に書かれたあの言葉。
　あの言葉が頭の中でぐるぐると回って離れない。
　どうして。
　ずっと考えていると頭がおかしくなりそうで、無理やり意識を廊下へと向ける。

　出てきた部屋はだいぶ後ろになってしまい、周囲はとても暗い。
　無機質な壁と床がとても冷たく感じる。

　非常にゆっくりと歩を進める。
　何かに足をつかまれているのではないかと思うぐらい、足が重かった。
　生き物の気配はないがとても嫌な感じがする。
　なぜこんなに不愉快な気持ちになるのだろう。


　「どうして」


　うるさい。黙れ。
　体には生ぬるいような風がまとわりつく。
　廊下をただゆっくりと進んでいくが、一体どこに向かっているのだろう。
　周りの空気が重く感じる。
　相変わらず先は真っ暗で何も見えない。
　最初にいた部屋はすでに遠く、周りに光源は無い。


　「どうして」


　黙ってくれ。
　体がひどく重い。
　背中に",1200003,2026,NULL,NULL
NULL,html-keyboard-response,4,1241778,0.0-4.0,3922243,control,2025/8/8 11:40,2025/8/8 12:01,debrief,NULL,3899,NULL,NULL,NULL,<p style='text-algin:left'>これで実験は終了です。お疲れ様でした。</p><p style='text-algin:left'>スペースキーを押して、謝金の支払いに関わる最後の質問に移行してください。</p>, 
1,preload,0,39,0.0-0.0,1919427,control,2025/8/8 11:41,2025/8/8 12:01,NULL,NULL,NULL,NULL,NULL,NULL,NULL,NULL
1,fullscreen,1,3897,0.0-1.0,1919427,control,2025/8/8 11:41,2025/8/8 12:01,FullScreen,NULL,NULL,NULL,NULL,NULL,NULL,NULL
NULL,instructions,2,41428,0.0-2.0,1919427,control,2025/8/8 11:41,2025/8/8 12:01,main_task_inst_tl,Array,37528,NULL,NULL,NULL,NULL,NULL
NULL,html-keyboard-response,3,1174959,0.0-3.0,1919427,control,2025/8/8 11:41,2025/8/8 12:01,writing_block,NULL,NULL,"てつのりは長すぎた髪を切ろうと考え、いつも通っている美容院に行くことにした。
道中髪型をどうしようかと考えていたがどうにも考えまとまらず、頭の中は自然と今年の夏のことに。

猛暑日が続く中、おじいちゃんが死んだという報が届いたのは8月の中旬だった。
てつのりは幼少期から祖父祖母のもとに預けられて、それから高校を卒業するまではずっと彼らと一緒にいたのだ。
そのため、報が届いたときには近年会いに行けていなかったことや昔の思い出などが頭を巡り、てつのりは我を失うほど泣いた。

特に覚えているのは、おじいちゃんと一緒にプールに行った時のことだ。
てつのりがプールサイドから交尾をしながら飛んでいるトンボを眺めていると、女子更衣室から1人の男が走りながらでてきた。
男はそのままスピードを緩めることなく出口へと駆け抜けていくが、どこからか「変態！」という声が。
その声を聞いた瞬間、おじいちゃんは脱兎の如きスピードで変態を追いかけ、見事取り押さえたのだ。
てつのりはそれ以来、おじいちゃんのような人になりたいと考えていた。

そんなことを考えていると、いよいよ美容院の前に到着した。
てつのりはいよいよ迫られた決断に覚悟しながら扉を開ける。
そして、案内されるされるがままに椅子に座ると、スマホにあるおじいちゃんの遺影を見せ、「この髪型にしてください。」と美容師に告げた。
美容師は「かしこまりました。」と静かに髪を切り始めた。

カットが終わり、眠ってしまっていたてつのりは美容師に起こされ「いかがでしょうか？」と完璧におじいちゃんを模倣した髪型を見せられた。
てつのりは「襟足切り過ぎだ。」と怒ってその場をあとにした。",1133525,6670,NULL,NULL
NULL,html-keyboard-response,4,1176829,0.0-4.0,1919427,control,2025/8/8 11:41,2025/8/8 12:01,debrief,NULL,1867,NULL,NULL,NULL,<p style='text-algin:left'>これで実験は終了です。お疲れ様でした。</p><p style='text-algin:left'>スペースキーを押して、謝金の支払いに関わる最後の質問に移行してください。</p>, 
1,preload,0,59,0.0-0.0,3283357,control,2025/8/8 11:41,2025/8/8 12:02,NULL,NULL,NULL,NULL,NULL,NULL,NULL,NULL
1,fullscreen,1,13952,0.0-1.0,3283357,control,2025/8/8 11:41,2025/8/8 12:02,FullScreen,NULL,NULL,NULL,NULL,NULL,NULL,NULL
NULL,instructions,2,80164,0.0-2.0,3283357,control,2025/8/8 11:41,2025/8/8 12:02,main_task_inst_tl,Array,66212,NULL,NULL,NULL,NULL,NULL
NULL,html-keyboard-response,3,1280178,0.0-3.0,3283357,control,2025/8/8 11:41,2025/8/8 12:02,writing_block,NULL,NULL,"1702年、カリブ海のトルトゥーガの島。海賊たちがたむろする酒場に、ボロボロの男が入店してくる。その男に声をかける赤いバンダナの男。「おい、あんた、どうした？　ここらじゃ見ない顔だな。」
ボロボロの男は答える。「オレは、ドラゴン海賊団のレイヴ。あ、あんたは？」
赤いバンダナの男は「オレはミゲルだ。ドラゴン海賊団って言ったら、スペイン船の私掠船の連中だろ？そんな奴がここにいたら、他の海賊たちに殺されちまうぞ。」
「お、オレは確かにスペイン公認の私掠船の海賊だが、スペイン政府のやり方と汚職が気にくわなくてな。逆にスペインのスクーナー船を襲っているところを、スペイン政府の艦隊に襲撃をくらって、船は大破。オレは命からがら、この島に着いたってわけだ。」
ミゲルはレイヴがうその事を言っているのか本当のことを言っているのか見極めるようにその目を見つめて言った。
「あんたが言っていることが本当なら、助けてやってもいいぜ。オレは、モーゼス海賊団所属の海賊だ。ただし、俺たちの船に乗るってのなら、掟には従ってもらう。」
レイヴはその言葉をしっかりと聞いたうえで、即決するように言い放つ。
「あぁ。助けてくれるのであれば、もともとスペイン政府に反旗を翻した身だ。世話になるよ。オレは、ドラゴン海賊団の船長補佐だった。船の事はあらかたわかる。」
ミゲルはにやりと笑いレイヴに水を差しだし「よし、話はきまった。早速俺たちの船長、モーゼスに合わせてやるよ。」
レイヴはもらった水を飲み干し、ミゲルについていく。
船までの道中、レイヴが小さな声で尋ねる。
「なぁ、ミゲル、お前たちもカリブの涙を狙っているのか？」
ミゲル「…あんた、どこでその話を？確かに俺たちはカリブの涙を探しているが、ほとんど出回っていない情報だぜ。」
レイヴ「やっぱりか。オレはスペイン政府の私掠船にいたっていったろ？当然政府の連中も知っている話だからな。」
ミゲルは頷きながら言う。
「そうか。スペイン政府も知っているって事は、やはりあるんだな、カリブの涙。」
「あぁ。オレを助けてくれたあんた達が知っていようがいまいが、せめてもの礼として情報を提供しようと思ってな。」
ミゲルはレイヴの言葉を聞き「なるほどな。海賊家業は、情報も立派な価値を持つ。そのｚｙ」",1200012,7516,NULL,NULL
NULL,html-keyboard-response,4,1283542,0.0-4.0,3283357,control,2025/8/8 11:41,2025/8/8 12:02,debrief,NULL,3360,NULL,NULL,NULL,<p style='text-algin:left'>これで実験は終了です。お疲れ様でした。</p><p style='text-algin:left'>スペースキーを押して、謝金の支払いに関わる最後の質問に移行してください。</p>, 
1,preload,0,20,0.0-0.0,2172518,control,2025/8/8 11:44,2025/8/8 12:07,NULL,NULL,NULL,NULL,NULL,NULL,NULL,NULL
1,fullscreen,1,7921,0.0-1.0,2172518,control,2025/8/8 11:44,2025/8/8 12:07,FullScreen,NULL,NULL,NULL,NULL,NULL,NULL,NULL
NULL,instructions,2,200478,0.0-2.0,2172518,control,2025/8/8 11:44,2025/8/8 12:07,main_task_inst_tl,Array,192555,NULL,NULL,NULL,NULL,NULL
NULL,html-keyboard-response,3,1400480,0.0-3.0,2172518,control,2025/8/8 11:44,2025/8/8 12:07,writing_block,NULL,NULL,犬のシロは飼い主の健太と散歩中にはぐれてしまいました。いつも散歩の時間以外は家の中で過ごしていたシロは外の世界に放り出され途方にくれてしまいます。よりによっていつもとは違う散歩コースだったため道もわかりません。あてもなくただ歩いていたシロは食べ物の良いにおいにつられて路地裏にふらふらと入って行きました。建物の隙間を通り抜けどうやってできたのかわからない穴に潜ってわずかに漏れる光のほうを目指して奥へ奥へと進んでいくと、なにやら騒がしい話し声がします。シロが穴から出るとそこには,1200001,87509,NULL,NULL
NULL,html-keyboard-response,4,1404364,0.0-4.0,2172518,control,2025/8/8 11:44,2025/8/8 12:07,debrief,NULL,3881,NULL,NULL,NULL,<p style='text-algin:left'>これで実験は終了です。お疲れ様でした。</p><p style='text-algin:left'>スペースキーを押して、謝金の支払いに関わる最後の質問に移行してください。</p>, 
1,preload,0,9,0.0-0.0,1304218,control,2025/8/8 11:46,2025/8/8 12:08,NULL,NULL,NULL,NULL,NULL,NULL,NULL,NULL
1,fullscreen,1,3115,0.0-1.0,1304218,control,2025/8/8 11:46,2025/8/8 12:08,FullScreen,NULL,NULL,NULL,NULL,NULL,NULL,NULL
NULL,instructions,2,70374,0.0-2.0,1304218,control,2025/8/8 11:46,2025/8/8 12:08,main_task_inst_tl,Array,67258,NULL,NULL,NULL,NULL,NULL
NULL,html-keyboard-response,3,1270379,0.0-3.0,1304218,control,2025/8/8 11:46,2025/8/8 12:08,writing_block,NULL,NULL,"ある森に一匹の狼が住んでいました。オオカミはいつも村の住人が楽しそうに暮らしているのをうらやましく「自分も皆となかよくなって、一緒に暮らせたらな」と思っていました。
ある日、村からとても美味しそうな匂いがしてきました。「なんの匂いだ？」気になったオオカミはちょっと村を覗きにいきました。そこには大きなカマドがあって、そこから美味しそうな匂いの煙が出ていました。「ありゃなんだ」とオオカミは身を乗り出してしまい窓からオオカミは転がり落ちてしまいました。目の前に大きな毛むくじゃらな塊が転がり落ちてききたので、村人たちは大慌てで逃げてしまいました。
どうしようと思うのもつかの間、オオカミはカマドの中が気になって仕方ありません。ついついカマドの扉を開こうとして大やけど「あちちちち！」ビックリしたオオカミも外に飛び出してきてしまいました。それを見ていた村人は、慌ててオオカミに水をかけてあげました。襲る襲る村人はオオカミに近づいてきて「アツアツのカマド触っちゃだめだよ」と優しく声をかけてくれました。",1200004,48312,NULL,NULL
NULL,html-keyboard-response,4,1275043,0.0-4.0,1304218,control,2025/8/8 11:46,2025/8/8 12:08,debrief,NULL,4662,NULL,NULL,NULL,<p style='text-algin:left'>これで実験は終了です。お疲れ様でした。</p><p style='text-algin:left'>スペースキーを押して、謝金の支払いに関わる最後の質問に移行してください。</p>, 
1,preload,0,62,0.0-0.0,6487944,control,2025/8/8 11:51,2025/8/8 12:11,NULL,NULL,NULL,NULL,NULL,NULL,NULL,NULL
1,fullscreen,1,4542,0.0-1.0,6487944,control,2025/8/8 11:51,2025/8/8 12:11,FullScreen,NULL,NULL,NULL,NULL,NULL,NULL,NULL
NULL,instructions,2,109422,0.0-2.0,6487944,control,2025/8/8 11:51,2025/8/8 12:11,main_task_inst_tl,Array,104878,NULL,NULL,NULL,NULL,NULL
NULL,html-keyboard-response,3,1141636,0.0-3.0,6487944,control,2025/8/8 11:51,2025/8/8 12:11,writing_block,NULL,NULL,私には３歳の息子がいる。その息子が最近、平仮名に興味を持ち始めていたため、平仮名を書く練習をしている。自分自身は、当然平仮名が書けるが、息子は初めての鉛筆の動きをするわけで、非常に戸惑いながら練習をしていた。その中で「お」という字を練習していた。息子は「お」を書こうとするとなぜか「す」のような形になってしまう。「お」という字を練習する前に「す」を練習していたからか、前の字にとても引っ張られている。だがその時私は、「お」とい字の中には「つ」と同じ形が含まれていることに気づいた。それを息子に伝えると「あ！そっか！」と言い納得したようで、それ以降は書けるようになっていった。そういった中で私は、字の形を「横にまっすぐ書く」や「まっすぐのばす」というように伝えるのではなく、何か関連した形を伝える方が息子にとってわかりやすいんだということに気づいた。その発見は幼い息子とのコミュニケーションをとる上で、何事にも共通しているかもしれないと考えると子育ての面白さを感じた。今後はその事柄を意識して、日々の子育てに活かしていきたいと思った。,1032213,3654,NULL,NULL
NULL,html-keyboard-response,4,1145813,0.0-4.0,6487944,control,2025/8/8 11:51,2025/8/8 12:11,debrief,NULL,4147,NULL,NULL,NULL,<p style='text-algin:left'>これで実験は終了です。お疲れ様でした。</p><p style='text-algin:left'>スペースキーを押して、謝金の支払いに関わる最後の質問に移行してください。</p>, 
1,preload,0,11,0.0-0.0,2090929,control,2025/8/8 12:37,2025/8/8 12:47,NULL,NULL,NULL,NULL,NULL,NULL,NULL,NULL
1,fullscreen,1,3365,0.0-1.0,2090929,control,2025/8/8 12:37,2025/8/8 12:47,FullScreen,NULL,NULL,NULL,NULL,NULL,NULL,NULL
NULL,instructions,2,55236,0.0-2.0,2090929,control,2025/8/8 12:37,2025/8/8 12:47,main_task_inst_tl,Array,51869,NULL,NULL,NULL,NULL,NULL
NULL,html-keyboard-response,3,613400,0.0-3.0,2090929,control,2025/8/8 12:37,2025/8/8 12:47,writing_block,NULL,NULL,"今年の夏はこんがりと日焼けしたいと思いつつ、日焼けサロンに行くお金がないので海へと出掛けたが、眼鏡を掛けたまま浜辺で眠ってしまい、気付いたら眼鏡の形だけ残った感じで焼けてしまった。
そこで、今度は眼鏡の部分だけ型抜きをした厚紙を用意し、焼けていない眼鏡の部分だけ日焼けさせようとしたが、やはりすぐに眠ってしまい、その際に型がずれて、今度は口元に眼鏡型の日焼けが出来てしまい、いよいよ人前に出られなくなったというお話。",558161,99450,NULL,NULL
NULL,html-keyboard-response,4,617208,0.0-4.0,2090929,control,2025/8/8 12:37,2025/8/8 12:47,debrief,NULL,3806,NULL,NULL,NULL,<p style='text-algin:left'>これで実験は終了です。お疲れ様でした。</p><p style='text-algin:left'>スペースキーを押して、謝金の支払いに関わる最後の質問に移行してください。</p>, 
1,preload,0,14,0.0-0.0,968553,control,2025/8/8 12:38,2025/8/8 12:50,NULL,NULL,NULL,NULL,NULL,NULL,NULL,NULL
1,fullscreen,1,3729,0.0-1.0,968553,control,2025/8/8 12:38,2025/8/8 12:50,FullScreen,NULL,NULL,NULL,NULL,NULL,NULL,NULL
NULL,instructions,2,58502,0.0-2.0,968553,control,2025/8/8 12:38,2025/8/8 12:50,main_task_inst_tl,Array,54772,NULL,NULL,NULL,NULL,NULL
NULL,html-keyboard-response,3,708788,0.0-3.0,968553,control,2025/8/8 12:38,2025/8/8 12:50,writing_block,NULL,NULL,"私はかわいらしく真っ白な犬を飼っていた。
その犬は甘えん坊で、少し抜けているところがあった。
ある日、キャンプ場にその犬と一緒に泊まりに行った。水遊びをしたり、バーベキューをするつもりだった。そこで、犬にライフジャケットを着せて河原で放し、自分はバーベキューの用意をしていた。忙しくてついつい、少し犬から目を離してしまった。そうしたら、大きなボチャンという音と一緒に、犬の姿が見えなくなっており、焦った私は必死で犬の名前を呼びながら、探していた。すると、気持ちよさそうにぷかぷかと泳ぎながらニコニコしている犬を見つけた。焦って近くに呼び戻し、今度は近くのポールにリードを簡単に繋いだ。安心してまた作業に戻ろうと、目を離した束の間に、またザブンという大きな音がした。またしても犬が飛び込んで水遊びを楽しんでいる。私は犬の笑顔で嬉しい気持ちになりつつも、先ほど、まだ水に入ってはダメとリードをつないだのにと呆れながらもどこか自分も楽しい気分になっていた。",650286,24504,NULL,NULL
NULL,html-keyboard-response,4,711533,0.0-4.0,968553,control,2025/8/8 12:38,2025/8/8 12:50,debrief,NULL,2744,NULL,NULL,NULL,<p style='text-algin:left'>これで実験は終了です。お疲れ様でした。</p><p style='text-algin:left'>スペースキーを押して、謝金の支払いに関わる最後の質問に移行してください。</p>, 
1,preload,0,6,0.0-0.0,3554155,control,2025/8/8 12:40,2025/8/8 12:52,NULL,NULL,NULL,NULL,NULL,NULL,NULL,NULL
1,fullscreen,1,6498,0.0-1.0,3554155,control,2025/8/8 12:40,2025/8/8 12:52,FullScreen,NULL,NULL,NULL,NULL,NULL,NULL,NULL
NULL,instructions,2,60305,0.0-2.0,3554155,control,2025/8/8 12:40,2025/8/8 12:52,main_task_inst_tl,Array,53806,NULL,NULL,NULL,NULL,NULL
NULL,html-keyboard-response,3,754320,0.0-3.0,3554155,control,2025/8/8 12:40,2025/8/8 12:52,writing_block,NULL,NULL,"引っ越したばかりのある日、近所を白塗りの車が宇宙と交信しているような音声を発しながら通り過ぎて行った。
私は頭のおかしな人が近くに住んでいるのかもしれないと怖くなった。
その車は度々家の前の道を通り過ぎ、その度に私は部屋まで聞こえてくる、よく聞き取れない不審な音声におののいていた。
ある時、道をあるいているとその白塗りの車が前方からやってきた。
ついに私は怖ろしいものに真正面から遭遇することとなった。
すると、車に装着されたスピーカーからは、「鯖の塩焼き、干しガレイ、新鮮なワカメ・・・」などと電車の車掌の案内のような話し声が聞こえてきた。
どうも、浜から直接魚を売りに来た業者だったらしい。
引っ越したばかりの慣れない土地で感じていた恐怖感は、潮の香りのする海のイメージと一緒にフワッとどこかへ飛んで行った。",694014,3936,NULL,NULL
NULL,html-keyboard-response,4,757424,0.0-4.0,3554155,control,2025/8/8 12:40,2025/8/8 12:52,debrief,NULL,3103,NULL,NULL,NULL,<p style='text-algin:left'>これで実験は終了です。お疲れ様でした。</p><p style='text-algin:left'>スペースキーを押して、謝金の支払いに関わる最後の質問に移行してください。</p>, 
1,preload,0,60,0.0-0.0,6102932,control,2025/8/8 12:46,2025/8/8 12:56,NULL,NULL,NULL,NULL,NULL,NULL,NULL,NULL
1,fullscreen,1,10043,0.0-1.0,6102932,control,2025/8/8 12:46,2025/8/8 12:56,FullScreen,NULL,NULL,NULL,NULL,NULL,NULL,NULL
NULL,instructions,2,65685,0.0-2.0,6102932,control,2025/8/8 12:46,2025/8/8 12:56,main_task_inst_tl,Array,55641,NULL,NULL,NULL,NULL,NULL
NULL,html-keyboard-response,3,571185,0.0-3.0,6102932,control,2025/8/8 12:46,2025/8/8 12:56,writing_block,NULL,NULL,"我が家には2人の子供が居ます。
5歳の娘と3歳の息子です。2ともあまり歳が離れていないので、
おもちゃの取り合いなどで喧嘩することがあり、蹴ったり、叩いたりしてます。
でもパパが帰ってくると
2人は協力してパパに立ち向かう体制に入り、
パパに向かって攻撃をしたりして、
パパをやっつけます。
いつもパパは2人に対して、おもちゃを片付けていないなどで
怒ったりするので、怖いみたいです。
テレビで戦隊物を見ているので、
何とかレンジャーに変身して強くなって、おもちゃの剣を振り回し戦っています。
そんな子供達の姿を見てるのが、私は微笑ましいです。
そのまま健康で、明るく、2人仲良く育っていて欲しいです。



",505497,16995,NULL,NULL
NULL,html-keyboard-response,4,573722,0.0-4.0,6102932,control,2025/8/8 12:46,2025/8/8 12:56,debrief,NULL,2534,NULL,NULL,NULL,<p style='text-algin:left'>これで実験は終了です。お疲れ様でした。</p><p style='text-algin:left'>スペースキーを押して、謝金の支払いに関わる最後の質問に移行してください。</p>, 
1,preload,0,27,0.0-0.0,3327831,control,2025/8/8 12:43,2025/8/8 12:58,NULL,NULL,NULL,NULL,NULL,NULL,NULL,NULL
1,fullscreen,1,3973,0.0-1.0,3327831,control,2025/8/8 12:43,2025/8/8 12:58,FullScreen,NULL,NULL,NULL,NULL,NULL,NULL,NULL
NULL,instructions,2,58132,0.0-2.0,3327831,control,2025/8/8 12:43,2025/8/8 12:58,main_task_inst_tl,Array,54158,NULL,NULL,NULL,NULL,NULL
NULL,html-keyboard-response,3,884019,0.0-3.0,3327831,control,2025/8/8 12:43,2025/8/8 12:58,writing_block,NULL,NULL,"ある朝、私が目覚めると、体が小さくなっていた。
しかしそれは真実ではなかった。
実は私の体が小さくなったのではなく、世界が巨大化していたのだ。

相対的に見れば同じことになるかもしれないが、実際のところ私のその認識は間違いがなく、エビデンスもあった。
それはまず、水を思うように飲めなかったことから気が付いた。
つまり水の分子が私の本来のサイズに比べて巨大化していて、私の体では簡単に吸収することができなかったのだ。

そう考えてみると、巨大化や小型化の物語はよくあるが、原子・分子レベルの問題はどうなっているのだろうと思った。
それだけではない。現実に存在している動物でも、同じ種類でもまったく大きさの違うものがある。

例えば魚だ。
魚は同じ魚でありながら、まったくサイズの異なるものが多くある。
そう考えたら、彼らは似たような構造、似たような臓器を持ちながら、世界の分子構造と同じように付き合っているではないか。

世の中とは何とも不思議なものだ。
私は、同じ種族で極端に違うサイズのものというものとあまり遭遇することはないので、それほど真剣に考えることは少ないのかもしれない。

そう考えると、私たちがものを考えることには、自身の生まれ持ったものも大きく関係してくるのだろう。

そこまで考えて、やっと私は現実と向き合う心構えができた。
さて、この世界が大きくなってしまったことにはどう対処すればいいのだろうか。

と、そこで目が覚めた。
「なんだ、夢か」
私はそう一人でつぶやき、いつものように大空へ飛び立った。",825886,27821,NULL,NULL
NULL,html-keyboard-response,4,886698,0.0-4.0,3327831,control,2025/8/8 12:43,2025/8/8 12:58,debrief,NULL,2678,NULL,NULL,NULL,<p style='text-algin:left'>これで実験は終了です。お疲れ様でした。</p><p style='text-algin:left'>スペースキーを押して、謝金の支払いに関わる最後の質問に移行してください。</p>, 
1,preload,0,7,0.0-0.0,1184990,control,2025/8/8 12:41,2025/8/8 12:58,NULL,NULL,NULL,NULL,NULL,NULL,NULL,NULL
1,fullscreen,1,3184,0.0-1.0,1184990,control,2025/8/8 12:41,2025/8/8 12:58,FullScreen,NULL,NULL,NULL,NULL,NULL,NULL,NULL
NULL,instructions,2,151510,0.0-2.0,1184990,control,2025/8/8 12:41,2025/8/8 12:58,main_task_inst_tl,Array,148325,NULL,NULL,NULL,NULL,NULL
NULL,html-keyboard-response,3,1061673,0.0-3.0,1184990,control,2025/8/8 12:41,2025/8/8 12:58,writing_block,NULL,NULL,"ある日、A男はテレビショッピングの司会になって、こんな商品をテレビカメラの前で紹介していた。

納豆を食べ終わった後のパックを洗う際に、困ったことはありませんか？
いつまでもベトベトやネバネバが落ちない上、スポンジにまで粘着して、臭いニオイまで付いてしまった。こんな経験をした方もいるはずです。
そんな方に紹介したいのが、こちらの商品。これは一見すると単なるスポンジですが、実は特殊な素材で加工されており、納豆のパックも短時間でスッキリ落とすことが可能です。
でも気になるのが、お値段ではないでしょうか？ご安心ください。今なら10セットで1万円で提供することが出来ます。
ただし時間制限は今から3時間のみ。さあ急いでこちらの電話番号へGO！

ここでA男は目を覚ました。なぜか社員食堂で納豆定食を食べながら、うたた寝をしてしまったようだ。口からは納豆のネバネバが糸をひいており、それを見た上司が呆れかえっていた。
",910162,10301,NULL,NULL
NULL,html-keyboard-response,4,1065274,0.0-4.0,1184990,control,2025/8/8 12:41,2025/8/8 12:58,debrief,NULL,3599,NULL,NULL,NULL,<p style='text-algin:left'>これで実験は終了です。お疲れ様でした。</p><p style='text-algin:left'>スペースキーを押して、謝金の支払いに関わる最後の質問に移行してください。</p>, 
1,preload,0,12,0.0-0.0,1225989,control,2025/8/8 12:40,2025/8/8 13:01,NULL,NULL,NULL,NULL,NULL,NULL,NULL,NULL
1,fullscreen,1,3530,0.0-1.0,1225989,control,2025/8/8 12:40,2025/8/8 13:01,FullScreen,NULL,NULL,NULL,NULL,NULL,NULL,NULL
NULL,instructions,2,69020,0.0-2.0,1225989,control,2025/8/8 12:40,2025/8/8 13:01,main_task_inst_tl,Array,65490,NULL,NULL,NULL,NULL,NULL
NULL,html-keyboard-response,3,1269023,0.0-3.0,1225989,control,2025/8/8 12:40,2025/8/8 13:01,writing_block,NULL,NULL,"彼の名前は三郎、35歳の会社員だ。
三郎はある日、いつもの道で小さなカフェを見つけた。
不思議に思って入ってみる。
そこでバリスタの女性にあるコーヒーをおすすめされる。
おすすめされたコーヒーは、飲むと明日が見えるものだという。
冗談だと思ったが、購入して一口飲んでみる。
すると、頭に妙な映像が浮かんでくる。
その映像は翌日の自分を後ろから眺めているような映像だ。
その映像では、自分が仕事で失敗しているようだ。
まさかとは思ったが、その日の夜は翌日の仕事の準備をいつも以上に念入りに行った。
翌日、前日に浮かんできた映像と同じ場面に遭遇したが、
準備をしていたおかげで失敗を回避することができた。
不思議に思って仕事帰りにカフェに行こうとするが、
そのカフェは無くなっていた。
今回、三郎が経験した奇妙な体験はなんだったのだろうか。",1200001,165309,NULL,NULL
NULL,html-keyboard-response,4,1271037,0.0-4.0,1225989,control,2025/8/8 12:40,2025/8/8 13:01,debrief,NULL,2011,NULL,NULL,NULL,<p style='text-algin:left'>これで実験は終了です。お疲れ様でした。</p><p style='text-algin:left'>スペースキーを押して、謝金の支払いに関わる最後の質問に移行してください。</p>, 
1,preload,0,133,0.0-0.0,6102932,control,2025/8/8 12:57,2025/8/8 13:06,NULL,NULL,NULL,NULL,NULL,NULL,NULL,NULL
1,fullscreen,1,3012,0.0-1.0,6102932,control,2025/8/8 12:57,2025/8/8 13:06,FullScreen,NULL,NULL,NULL,NULL,NULL,NULL,NULL
NULL,instructions,2,8339,0.0-2.0,6102932,control,2025/8/8 12:57,2025/8/8 13:06,main_task_inst_tl,Array,5325,NULL,NULL,NULL,NULL,NULL
NULL,html-keyboard-response,3,496650,0.0-3.0,6102932,control,2025/8/8 12:57,2025/8/8 13:06,writing_block,NULL,NULL,"私には2人の子供がいます。
5歳の娘と3歳の息子です。
2人とも歳の差があまりないので、
普段はおもちゃの取り合いで良く喧嘩したりしています。
お互いを叩いたり、蹴ったり大変です。
でもパパが帰ってきた時には2人で協力して、
戦隊物の何とかレンジャーに変身し
強くなって2人で協力して戦っています。
それはいつもおもちゃを片付けなかったり、
言う事を聞かなかったりして
良く怒るからです。
いつも喧嘩しているのに、パパが相手だと
2人で協力して遊んでいるのを見て
私は大変微笑ましいです。
これからも健康で仲良く大きくなって欲しいです。
今は夏休みなので、毎日大変です。
そんなお話でした。


",488309,10513,NULL,NULL
NULL,html-keyboard-response,4,501985,0.0-4.0,6102932,control,2025/8/8 12:57,2025/8/8 13:06,debrief,NULL,5334,NULL,NULL,NULL,<p style='text-algin:left'>これで実験は終了です。お疲れ様でした。</p><p style='text-algin:left'>スペースキーを押して、謝金の支払いに関わる最後の質問に移行してください。</p>, 
1,preload,0,32,0.0-0.0,5560684,control,2025/8/8 13:40,2025/8/8 14:00,NULL,NULL,NULL,NULL,NULL,NULL,NULL,NULL
1,fullscreen,1,8414,0.0-1.0,5560684,control,2025/8/8 13:40,2025/8/8 14:00,FullScreen,NULL,NULL,NULL,NULL,NULL,NULL,NULL
NULL,instructions,2,34875,0.0-2.0,5560684,control,2025/8/8 13:40,2025/8/8 14:00,main_task_inst_tl,Array,26459,NULL,NULL,NULL,NULL,NULL
NULL,html-keyboard-response,3,1234879,0.0-3.0,5560684,control,2025/8/8 13:40,2025/8/8 14:00,writing_block,NULL,NULL,"ある日、Aが会社に行くため、バスに乗った。Aは空いている席に座った。数分後、バス停で男が乗車した。男はAの隣に座った。男はAより先に降りて行った。バスが発車した後、Aは男が財布を忘れて降りてしまったことに気づいた。
Aは出来心から男が忘れていった財布の中身を確認した。財布には免許証が入っていた。見覚えのある名前だった。Aは男が学生時代の同級生であることに気づいた。さして仲良くなかったためお互い気づかなかったようだ。
目的のバス停についた。Aは財布を運転手に渡してバスを降りた。それから一日、いつものように仕事を行い、退社の時間になった。会社を出てすぐ電話が鳴った。誰あろう同級成",1200002,91466,NULL,NULL
NULL,html-keyboard-response,4,1238533,0.0-4.0,5560684,control,2025/8/8 13:40,2025/8/8 14:00,debrief,NULL,3652,NULL,NULL,NULL,<p style='text-algin:left'>これで実験は終了です。お疲れ様でした。</p><p style='text-algin:left'>スペースキーを押して、謝金の支払いに関わる最後の質問に移行してください。</p>, 
1,preload,0,5,0.0-0.0,5034632,control,2025/8/8 23:13,2025/8/8 23:22,NULL,NULL,NULL,NULL,NULL,NULL,NULL,NULL
1,fullscreen,1,2890,0.0-1.0,5034632,control,2025/8/8 23:13,2025/8/8 23:22,FullScreen,NULL,NULL,NULL,NULL,NULL,NULL,NULL
NULL,instructions,2,36511,0.0-2.0,5034632,control,2025/8/8 23:13,2025/8/8 23:22,main_task_inst_tl,Array,33620,NULL,NULL,NULL,NULL,NULL
NULL,html-keyboard-response,3,577624,0.0-3.0,5034632,control,2025/8/8 23:13,2025/8/8 23:22,writing_block,NULL,NULL,"美味しいご飯で幸せを作る。

この町では年に１度街をあげて「料理を作るコンテスト」が行われます。
毎年のテーマが発表されると、街の人々は何を作るかみんな考え出します。

その中でもある中学校の料理部は高校への推薦がきまるため、みんな必死。

Ａさん「私は煮込み料理がいいかな」
Ｂさん「僕は米料理にしよう」
など部員皆で料理を考えています。

今回のテーマは「幸せ」

みんな幸せをテーマに美味しい料理を考えていました。

いよいよコンテスト当日。

この中学校以外にも街の料理自慢の子供、大人がみんな集まってきました。

緊張していつもはできる包丁さばきも上手くできない人も。
そんな中この中学校のみんなは冷静に包丁をつかって下ごしらえをしています。

いつもは仲間のみんなも今日はライバル。

Ａさんはハンバーグ煮込み
Ｂさんは炊き込みご飯
Ｃさんは前菜
Ｄさんは汁物・・・

そうこの中学校の部員は、みんなで１つの会席料理を作り上げたのです。

これまで推薦が決まっているため個人戦だったこのコンテスト。
ところが、今回はそのコンテストが始まってチーム戦だったのです。

",541112,4876,NULL,NULL
NULL,html-keyboard-response,4,579308,0.0-4.0,5034632,control,2025/8/8 23:13,2025/8/8 23:22,debrief,NULL,1683,NULL,NULL,NULL,<p style='text-algin:left'>これで実験は終了です。お疲れ様でした。</p><p style='text-algin:left'>スペースキーを押して、謝金の支払いに関わる最後の質問に移行してください。</p>, 