"ID","condition","order","time","probe_interval","response","response_time_for_beep","trial_text"
"3124577","control","0","20831","15000","output","1769","太郎は良子に恋をしていｍ"
"3124577","control","1","57751","33000","planning","1319","太郎は"
"6233409","control","0","43711","39000","planning","1566",
"3124577","control","2","98615","37000","output","1576","太郎はお父さんとお母さんの3人家族でした。
あるとき太郎に弟ができることが判りました。
"
"6233409","control","1","85367","38000","output","2262","二匹の猫が並んで歩いていました。
オスの猫は黒色、"
"3124577","control","3","120399","18000","output","1585","太郎はお父さんとお母さんの3人家族でした。
あるとき太郎に弟ができることが判りました。
太郎はとても嬉しくて弟が生まれてくる火を"
"3260097","control","0","48666","37000","output","2144","小さな子猫と独りぼっちで寂しいおもいを"
"6233409","control","2","130167","41000","planning","2166","二匹の猫が並んで歩いていました。
オスの猫は黒色、メスの猫は白色をしています。

向かい側からオスのトラ猫が歩いてきました。
トラ猫はメスの白猫をとても気に入ったようです。

"
"3124577","control","4","166663","43000","output","1129","太郎はお父さんとお母さんの3人家族でした。
あるとき太郎に弟ができることが判りました。
太郎はとても嬉しくて弟が生まれてくる日を楽しみにしていました。
そして3か月後、ついに弟が生まれました。
太郎は弟が可愛くてかわ"
"3260097","control","1","80118","28000","output","1516","小さな子猫と独りぼっちで寂しい思いをしている少年が雨の中出会った。最初は全く"
"5398551","control","0","33826","21000","output","1719","時代ははるか未来、AIが今より発展し、にんげんｔ"
"6233409","control","3","168407","35000","output","2127","二匹の猫が並んで歩いていました。
オスの猫は黒色、メスの猫は白色をしています。
黒色のオス猫は白色のメス猫の事がとても好きです。

向かい側からオスのトラ猫が歩いてきました。
トラ猫は白色のめをとても気に入ったようです。

"
"3260097","control","2","99170","16000","output","1227","小さな子猫と独りぼっちで寂しい思いをしている少年が雨の中出会った。最初は全く子猫に興味がなかったが、自分と同じように一人でいる"
"3124577","control","5","194999","25000","output","1610","太郎はお父さんとお母さんの3人家族でした。
あるとき太郎に弟ができることが判りました。
太郎はとても嬉しくて弟が生まれてくる日を楽しみにしていました。
そして3か月後、ついに弟が生まれました。
太郎は弟が可愛くて可愛くて仕方がありませんでした。
太郎は毎日"
"2752457","control","0","28667","24000","planning","1464","ある日、世界中に未知のウイルスが蔓延した。"
"3260097","control","3","119991","18000","output","1486","小さな子猫と独りぼっちで寂しい思いをしている少年が雨の中出会った。最初は全く子猫に興味がなかったが、自分と同じように一人でいる猫に親近感を覚え、いつしかこの子とずっと一緒にいたい"
"3124577","control","6","216455","18000","output","1417","太郎はお父さんとお母さんの3人家族でした。
あるとき太郎に弟ができることが判りました。
太郎はとても嬉しくて弟が生まれてくる日を楽しみにしていました。
そして3か月後、ついに弟が生まれました。
太郎は弟が可愛くて可愛くて仕方がありませんでした。
太郎は毎日毎日弟の世話をして大切に"
"1274239","control","0","41879","39000","planning","935","ある夏休みのとても暑い日。友達と集まって"
"5398551","control","1","75250","38000","output","1112","時代ははるか未来、AIが今より発展し、人間と区別がつかないほど進化し、独自の意識を"
"4983408","control","0","33166","28000","output","1472","街外れにある"
"6233409","control","4","199286","28000","output","1663","二匹の猫が並んで歩いていました。
オスの猫は黒色、メスの猫は白色をしています。
黒色のオス猫は白色のメス猫の事がとても好きです。

向かい側からオスのトラ猫が歩いてきました。
トラ猫は白色のメス猫をとても気に入ったようです。

黒猫とトラ猫は白猫をめぐってのライバル関係になりました。
二匹ともしろねｋ
"
"1533311","control","0","25536","19000","planning","1376","おばあさんとおじいさんが川にｓ"
"5398551","control","2","95289","17000","planning","939","時代ははるか未来、AIが今より発展し、人間と区別がつかないほど進化し、独自の意識を持ち、ただの機械ではなく、"
"3124577","control","7","244111","24000","output","2539","太郎はお父さんとお母さんの3人家族でした。
あるとき太郎に弟ができることが判りました。
太郎はとても嬉しくて弟が生まれてくる日を楽しみにしていました。
そして3か月後、ついに弟が生まれました。
太郎は弟が可愛くて可愛くて仕方がありませんでした。
太郎は毎日毎日弟の世話をして大切に扱っていました。
ですが暫くするとお母さんもお父さんもお"
"3585633","control","0","22257","17000","planning","1690","私は、"
"1274239","control","1","65903","22000","planning","1095","ある夏休みのとても暑い日。友達と集まって海に行くことになった。"
"6233409","control","5","228551","25000","planning","2468","二匹の猫が並んで歩いていました。
オスの猫は黒色、メスの猫は白色をしています。
黒色のオス猫は白色のメス猫の事がとても好きです。

向かい側からオスのトラ猫が歩いてきました。
トラ猫は白色のメス猫をとても気に入ったようです。

黒猫とトラ猫は白猫をめぐってのライバル関係になりました。
二匹とも白猫に気に入られるように何かプレゼントをあげようと考えます。


"
"2752457","control","1","76320","44000","planning","1492","ある日、世界中に未知のウイルスが蔓延した。そのウイルスに感染した者には当初風邪のような発熱が発症する。"
"3260097","control","4","162595","39000","output","1737","小さな子猫と独りぼっちで寂しい思いをしている少年が雨の中出会った。最初は全く子猫に興味がなかったが、自分と同じように一人でいる猫に親近感を覚え、いつしかこの子とずっと一緒にいたいと思うようになる。

そんなある日、少年はいたはずのねこｎ"
"5398551","control","3","113489","15000","output","807","時代ははるか未来、AIが今より発展し、人間と区別がつかないほど進化し、独自の意識を持ち、人間ときょうｚただの機械ではなく、"
"3922243","control","0","20334","17000","output","1099","　目が覚めると、真っ白い何もない部屋にいた。
　自分がどうしてこ"
"4983408","control","1","78182","41000","output","1612","街外れにある小さな村に、一人の女の子がいました。魔法が使えるせ"
"3710758","control","0","48352","43000","output","1443","私はいま、北海道に旅行に来ています。
この旅行の目的はおいしいものをたくさん食べることです。
海に面していないけんに"
"1533311","control","1","75463","45000","planning","2447","おばあさんとおじいさんが川に洗濯に行きました。そこへ桃が流れてきましたが、二人とも見逃してしまいました。"
"3260097","control","5","183467","18000","output","1418","小さな子猫と独りぼっちで寂しい思いをしている少年が雨の中出会った。最初は全く子猫に興味がなかったが、自分と同じように一人でいる猫に親近感を覚え、いつしかこの子とずっと一緒にいたいと思うようになる。

そんなある日、少年はいたはずの猫の姿を見失ってしまう。とても不安になりそこら"
"6233409","control","6","254662","22000","output","2287","二匹の猫が並んで歩いていました。
オスの猫は黒色、メスの猫は白色をしています。
黒色のオス猫は白色のメス猫の事がとても好きです。

向かい側からオスのトラ猫が歩いてきました。
トラ猫は白色のメス猫をとても気に入ったようです。

黒猫とトラ猫は白猫をめぐってのライバル関係になりました。
二匹とも白猫に気に入られるように何かプレゼントをあげようと考えます。

黒猫は白猫のためにど"
"5398551","control","4","137700","21000","output","919","時代ははるか未来、AIが今より発展し、人間と区別がつかないほど進化し、独自の意識を持ち、人間と共存していた。彼らにはにｎ"
"1274239","control","2","108200","40000","output","776","ある夏休みのとても暑い日。友達と集まって海に行くことになった。誰が一番魚を釣れるか勝負しようという話になり罰ゲーム"
"4983408","control","2","98072","17000","output","1393","街外れにある小さな村に、一人の女の子がいました。魔法が使える世界にあるこの村の女の子は、"
"3710758","control","1","70456","17000","output","1407","私はいま、北海道に旅行に来ています。
この旅行の目的はおいしいものをたくさん食べることです。
海に面していない県に住んでいるので、おいしい海鮮をおｎ"
"438363","control","0","41447","35000","output","1558","僕は川沿いをランニングするのが日課だった。サッカーの"
"3124577","control","8","293015","45000","output","1352","太郎はお父さんとお母さんの3人家族でした。
あるとき太郎に弟ができることが判りました。
太郎はとても嬉しくて弟が生まれてくる日を楽しみにしていました。
そして3か月後、ついに弟が生まれました。
太郎は弟が可愛くて可愛くて仕方がありませんでした。
太郎は毎日毎日弟の世話をして大切に扱っていました。
ですが暫くするとお母さんもお父さんも弟ばかり構っていて自分を構ってもらえず不満を抱くようになりました。
あまりにもおとうと"
"3585633","control","1","70332","44000","planning","1448","私は、暗い夜道をひたすらに歩いていた。
ただまっすぐに、まっすぐに"
"3922243","control","1","50565","27000","planning","1358","　目が覚めると、真っ白い何もない部屋にいた。
　自分がどうしてここにいるのかもよくわからない。
　今まで自分が何をしていたのか思い出そうとするが、"
"3260097","control","6","205343","19000","output","1229","小さな子猫と独りぼっちで寂しい思いをしている少年が雨の中出会った。最初は全く子猫に興味がなかったが、自分と同じように一人でいる猫に親近感を覚え、いつしかこの子とずっと一緒にいたいと思うようになる。

そんなある日、少年はいたはずの猫の姿を見失ってしまう。とても不安になりそこらじゅうを探し回っていると、いつの間にか葉は猫を"
"4960690","control","0","49895","44000","output","2010","右下腹部に痛みを感じていたが放置していた。
最初は筋肉痛だと思っており特に何も気にしていなかった。"
"2752457","control","2","124870","45000","planning","1460","ある日、世界中に未知のウイルスが蔓延した。そのウイルスに感染した者には当初微熱が発症する。単なる風邪だろうとたかをくくっていると、その数日後に高熱・頭痛・悪寒"
"6233409","control","7","285014","27000","output","2102","二匹の猫が並んで歩いていました。
オスの猫は黒色、メスの猫は白色をしています。
黒色のオス猫は白色のメス猫の事がとても好きです。

向かい側からオスのトラ猫が歩いてきました。
トラ猫は白色のメス猫をとても気に入ったようです。

黒猫とトラ猫は白猫をめぐってのライバル関係になりました。
二匹とも白猫に気に入られるように何かプレゼントをあげようと考えます。

黒猫は白猫のためにどこかからソーセージを探しても"
"5398551","control","5","165709","25000","revision","1431","時代ははるか未来、AIが今より発展し、人間と区別がつかないほど進化し、独自の意識を持ち。彼らには人間の人権のように権利が認められ、"
"4983408","control","3","124638","24000","output","1111","街外れにある小さな村に、一人の女の子がいました。魔法が使える世界にあるこの村の女の子は、魔法の勉強を毎日しています。今使える魔法はケア"
"3922243","control","2","71365","18000","revision","1241","　目が覚めると、真っ白い何もない部屋にいた。
　自分がどうしてここにいるのかもよくわからない。
　今まで自分が何をしていたのか思い出そうとするが、頭に靄がかかったようにぼんやりとしていた。"
"1533311","control","2","117560","39000","output","1127","おばあさんとおじいさんが川に洗濯に行きました。そこへ桃が流れてきましたが、二人とも見逃してしまいました。ある日、二人の元へ少年が現れました。"
"1274239","control","3","138087","25000","planning","3239","ある夏休みのとても暑い日。友達と集まって海に行くことになった。誰が一番魚を釣れるか勝負しようという話になり罰ゲー"
"3585633","control","2","102198","28000","output","1476","私は、暗い夜道をひたすらに歩いていた。
ただまっすぐに、まっすぐに。
今が何時なのかは一切わか"
"438363","control","1","79225","34000","output","1321","僕は川沿いをランニングするのが日課だった。サッカー部に入っているのだが、部活を終えた後も、足腰を鍛え、じきゅりょくを"
"1533311","control","3","138462","16000","planning","2919","おばあさんとおじいさんが川に洗濯に行きました。そこへ桃が流れてきましたが、二人とも見逃してしまいました。ある日、二人の元へ少年が現れました。ｗ"
"3260097","control","7","243948","34000","revision","2458","小さな子猫と独りぼっちで寂しい思いをしている少年が雨の中出会った。最初は全く子猫に興味がなかったが、自分と同じように一人でいる猫に親近感を覚え、いつしかこの子とずっと一緒にいたいと思うようになる。

そんなある日、少年はいたはずの猫の姿を見失ってしまう。とても不安になりそこらじゅうを探し回っていると、いつの間にか母猫を見つけて一緒にいられるようになっていた。

"
"3710758","control","2","119104","44000","planning","1825","私はいま、北海道に旅行に来ています。
この旅行の目的はおいしいものをたくさん食べることです。
海に面していない県に住んでいるので、おいしい海鮮をおなか一杯に食べたいと、一年近く計画をしていました。
やっぱり北海道と言えばカニですね！
あとはホタテとか雲丹とか"
"3124577","control","9","340471","40000","output","1304","太郎はお父さんとお母さんの3人家族でした。
あるとき太郎に弟ができることが判りました。
太郎はとても嬉しくて弟が生まれてくる日を楽しみにしていました。
そして3か月後、ついに弟が生まれました。
太郎は弟が可愛くて可愛くて仕方がありませんでした。
太郎は毎日毎日弟の世話をして大切に扱っていました。
ですが暫くするとお母さんもお父さんも弟ばかり構っていて自分を構ってもらえず不満を抱くようになりました。
あまりにも弟ばかり構っていて太郎は寂しくて仕方がありませんでした。
そこで太郎は思いつきます。
"
"4983408","control","4","152230","25000","output","983","街外れにある小さな村に、一人の女の子がいました。魔法が使える世界にあるこの村の女の子は、魔法の勉強を毎日しています。今使える魔法は回復魔法。優しい女の子は自分の回復魔法を"
"2752457","control","3","165251","37000","output","1163","ある日、世界中に未知のウイルスが蔓延した。そのウイルスに感染した者には当初微熱が発症する。単なる風邪だろうとたかをくくっていると、その数日後に高熱・頭痛・悪寒・吐き気といった重症に発展していく。ついには吐血・目眩"
"5398551","control","6","198553","30000","planning","1012","時代ははるか未来、AIが今より発展し、人間と区別がつかないほど進化し、独自の意識を持。彼らには人間の人権のように権利が認められ、人間と共存していた。"
"4960690","control","1","95336","42000","output","1355","右下腹部に痛みを感じていたが放置していた。
最初は筋肉痛だと思っており特に何も気にしていなかった。
ちょうど妻が健康診断の結果を踏まえて、大腸内視鏡検査を受けた"
"3585633","control","3","126816","21000","output","1123","私は、暗い夜道をひたすらに歩いていた。
ただまっすぐに、まっすぐに。
今が何時なのかは一切わからない。
極端に言えば、"
"1919427","control","0","36081","30000","output","1273","てつのりは長すぎた髪を切ろうと考え、いつも通っている"
"839571","control","0","49265","43000","planning","2412","ある日宇宙に小さな花が咲いていました。
その小さな花はいつか別の星に行きたいとねがいい"
"3283357","control","0","24846","20000","output","1791","カリブ海のとるとｌ"
"1274239","control","4","175231","34000","planning","1691","ある夏休みのとても暑い日。友達と集まって海に行くことになった。誰が一番魚を釣れるか勝負しようという話になり罰ゲーをする"
"3922243","control","3","111231","37000","output","1093","　目が覚めると、真っ白い何もない部屋にいた。
　自分がどうしてここにいるのかもよくわからない。
　今まで自分が何をしていたのか思い出そうとするが、頭に靄がかかったように記憶がぼんやりとしていた。

　しばらく部屋でぼーっとしていたが、ふと気が付くと部屋の真ん中に小さなテーブルがあった。
　先ほどまでは無かったはずなのに、と"
"6233409","control","8","334726","44000","output","4535","二匹の猫が並んで歩いていました。
オスの猫は黒色、メスの猫は白色をしています。
黒色のオス猫は白色のメス猫の事がとても好きです。

向かい側からオスのトラ猫が歩いてきました。
トラ猫は白色のメス猫をとても気に入ったようです。

黒猫とトラ猫は白猫をめぐってのライバル関係になりました。
二匹とも白猫に気に入られるように何かプレゼントをあげようと考えます。

黒猫は白猫のためにどこかからソーセージを探して持ってきました。
トラ猫は白猫のためにどこかから煮干しを探して持ってきました。

白猫はどちらをたべようｋ"
"4983408","control","5","170430","15000","output","2147","街外れにある小さな村に、一人の女の子がいました。魔法が使える世界にあるこの村の女の子は、魔法の勉強を毎日しています。今使える魔法は回復魔法。優しい女の子は自分の回復魔法を今以上に勉強をしたいと"
"1533311","control","4","163932","22000","output","1824","おばあさんとおじいさんが川に洗濯に行きました。そこへ桃が流れてきましたが、二人とも見逃してしまいました。ある日、二人の元へ少年が現れました。少年は私は桃太郎だと名乗りましたが、"
"3710758","control","3","143439","20000","planning","1799","私はいま、北海道に旅行に来ています。
この旅行の目的はおいしいものをたくさん食べることです。
海に面していない県に住んでいるので、おいしい海鮮をおなか一杯に食べたいと、一年近く計画をしていました。
やっぱり北海道と言えばカニですね！
あとはホタテとか雲丹とかお寿司が食べたいです。
あと、北海道はぎゅうにゅう"
"2752457","control","4","192495","24000","output","1442","ある日、世界中に未知のウイルスが蔓延した。そのウイルスに感染した者には当初微熱が発症する。単なる風邪だろうとたかをくくっていると、その数日後に高熱・頭痛・悪寒・吐き気などの重症に発展していく。ついには吐血・目眩・意識混濁に陥り、"
"438363","control","2","128368","45000","output","2091","僕は川沿いをランニングするのが日課だった。サッカー部に入っているのだが、部活を終えた後も、足腰を鍛え、持久力を付けるために、一度家に帰った後も、こうしてランニングに励むのだった。ある日、何時ものように川沿いを走っているととつぜん"
"3260097","control","8","284756","38000","output","1443","小さな子猫と独りぼっちで寂しい思いをしている少年が雨の中出会った。最初は全く子猫に興味がなかったが、自分と同じように一人でいる猫に親近感を覚え、いつしかこの子とずっと一緒にいたいと思うようになる。

そんなある日、少年はいたはずの猫の姿を見失ってしまう。とても不安になりそこらじゅうを探し回っていると、いつの間にか母猫を見つけて一緒にいられるようになっていた。

心から良かったと思う反面、何だか自分だけ取り残されたような気持ちになり、また一人ぼっちのこどくを"
"4960690","control","2","128463","30000","output","1483","右下腹部に痛みを感じていたが放置していた。
最初は筋肉痛だと思っており特に何も気にしていなかった。
ちょうど妻が健康診断の結果を踏まえて、大腸内視鏡検査を受けていた。
自分ももしかしてと思い、大腸の不調を疑い始めた。
すぐに消化器内科"
"1274239","control","5","200999","24000","output","792","夕方のスーパー。
レジに並んでいたら、前の男性がエプロンを着けていた。
でもそのエプロンには、スーパーのロゴではなく「ただの客です」と書かれていた。

会計を済ませた彼は、カゴを持ったままこちらを見て言った。
「今日はレジの順番、逆なんですよ。」

次の瞬間、レジ係が無言で私のカゴを持って外へ走っていった。"
"5398551","control","7","234548","33000","planning","1190","時代ははるか未来、AIが今より発展し、人間と区別がつかないほど進化し、独自の意識を持つほどになっている。それほどまでに進化した彼らには、人間の人権のような権利が認められ、人間と共存していた。
しかしそ"
"3922243","control","4","137537","24000","planning","1123","　目が覚めると、真っ白い何もない部屋にいた。
　自分がどうしてここにいるのかもよくわからない。
　今まで自分が何をしていたのか思い出そうとするが、頭に靄がかかったように記憶がぼんやりとしていた。

　しばらく部屋でぼーっとしていたが、ふと気が付くと部屋の真ん中に小さなテーブルがあった。
　先ほどまでは無かったはずなのに、と不思議に思いながら近づくと、テーブルの上には一枚の紙があった。

　「"
"839571","control","1","81615","27000","output","3348","ある日宇宙に小さな花が咲いていました。
その小さな花はいつか別の星に行きたいと願っていました。
なぜなら、その小さな花は意思をｍ"
"3710758","control","4","165744","19000","output","1728","私はいま、北海道に旅行に来ています。
この旅行の目的はおいしいものをたくさん食べることです。
海に面していない県に住んでいるので、おいしい海鮮をおなか一杯に食べたいと、一年近く計画をしていました。
やっぱり北海道と言えばカニですね！
あとはホタテとか雲丹とかお寿司が食べたいです。
あと、北海道は牛乳がおいしそうなイメージがあるので、生クリームを使ったスイーツや"
"3124577","control","10","389535","42000","revision","1281","太郎はお父さんとお母さんの3人家族でした。
あるとき太郎に弟ができることが判りました。
太郎はとても嬉しくて弟が生まれてくる日を楽しみにしていました。
そして3か月後、ついに弟が生まれました。
太郎は弟が可愛くて可愛くて仕方がありませんでした。
太郎は毎日毎日弟の世話をして大切に扱っていました。
ですが暫くするとお母さんもお父さんも弟ばかり構っていて自分を構ってもらえず不満を抱くようになりました。
あまりにも弟ばかり構っていて太郎は寂しくて仕方がありませんでした。
そこで太郎は思いつきます。
弟が死んでしまえばお母さんもお父さんも自分の方を向いてくれるのではと。
そこで太郎は弟を殺す計画を"
"1966230","control","0","39111","30000","other","1733",
"3585633","control","4","169075","38000","revision","1321","私は、暗い夜道をひたすらに歩いていた。
ただまっすぐに、まっすぐに。
今が何時なのかは一切わからない。
極端に言えば、自分が誰なのかさえわかっていない。
ただただ、何かに追われているような気がして、"
"1919427","control","1","82112","42000","output","1369","てつのりは長すぎた髪を切ろうと考え、いつも通っている美容院を訪れた。
道中髪型をどうしようかと考えていたが、どうにも考えまとまらず、自然と"
"438363","control","3","149143","15000","output","831","僕は川沿いをランニングするのが日課だった。サッカー部に入っているのだが、部活を終えた後も、足腰を鍛え、持久力を付けるために、一度家に帰った後も、こうしてランニングに励むのだった。ある日、何時ものように川沿いを走っていると突然、空がくもでま"
"3283357","control","1","71502","41000","output","1636","カリブ海のトルトゥーガの島の酒場に、ボロボロのある男が"
"6233409","control","9","374294","37000","revision","1455","二匹の猫が並んで歩いていました。
オスの猫は黒色、メスの猫は白色をしています。
黒色のオス猫は白色のメス猫の事がとても好きです。

向かい側からオスのトラ猫が歩いてきました。
トラ猫は白色のメス猫をとても気に入ったようです。

黒猫とトラ猫は白猫をめぐってのライバル関係になりました。
二匹とも白猫に気に入られるように何かプレゼントをあげようと考えます。

黒猫は白猫のためにどこかからソーセージを探して持ってきました。
トラ猫は白猫のためにどこかから煮干しを探して持ってきました。

白猫はどちらを食べようか迷っています。

黒猫とトラ猫は"
"4960690","control","3","148395","17000","output","964","右下腹部に痛みを感じていたが放置していた。
最初は筋肉痛だと思っており特に何も気にしていなかった。
ちょうど妻が健康診断の結果を踏まえて、大腸内視鏡検査を受けていた。
自分ももしかしてと思い、大腸の不調を疑い始めた。
すぐに消化器内科を受診した。
念のため、大腸内視鏡を受けましょうというこｔ"
"3260097","control","9","305924","18000","output","1666","小さな子猫と独りぼっちで寂しい思いをしている少年が雨の中出会った。最初は全く子猫に興味がなかったが、自分と同じように一人でいる猫に親近感を覚え、いつしかこの子とずっと一緒にいたいと思うようになる。

そんなある日、少年はいたはずの猫の姿を見失ってしまう。とても不安になりそこらじゅうを探し回っていると、いつの間にか母猫を見つけて一緒にいられるようになっていた。

心から良かったと思う反面、何だか自分だけ取り残されたような気持ちになり、また一人ぼっちの孤独を味わっていたら、今度はその母猫が少年の"
"2752457","control","5","224389","29000","output","1202","ある日、世界中に未知のウイルスが蔓延した。そのウイルスに感染した者には当初微熱が発症する。単なる風邪だろうとたかをくくっていると、その数日後に高熱・頭痛・悪寒・吐き気などの重症に発展していく。ついには吐血・目眩・意識混濁に陥り、最終的に絶命に至る。このウイルスの猛威の前に"
"1533311","control","5","207994","38000","output","1203","おばあさんとおじいさんが川に洗濯に行きました。そこへ桃が流れてきましたが、二人とも見逃してしまいました。ある日、二人の元へ少年が現れました。少年は私は桃太郎だと自慢げに名乗りましたが、おじいさんとおばあさんは意味がわかりません。"
"4983408","control","6","218958","45000","output","1442","街外れにある小さな村に、一人の女の子がいました。魔法が使える世界にあるこの村の女の子は、魔法の勉強を毎日しています。今使える魔法は回復魔法。優しい女の子は自分の回復魔法を今以上に勉強をしたいと日々生きています。

こんな女の子は突然怪我をした男の子に出会いました。
「大丈夫"
"3124577","control","11","411527","17000","output","1282","太郎はお父さんとお母さんの3人家族でした。
あるとき太郎に弟ができることが判りました。
太郎はとても嬉しくて弟が生まれてくる日を楽しみにしていました。
そして3か月後、ついに弟が生まれました。
太郎は弟が可愛くて可愛くて仕方がありませんでした。
太郎は毎日毎日弟の世話をして大切に扱っていました。
ですが暫くするとお母さんもお父さんも弟ばかり構っていて自分を構ってもらえず不満を抱くようになりました。
あまりにも弟ばかり構っていて太郎は寂しくて仕方がありませんでした。
そこで太郎は思いつきます。
弟が死んでしまえばお母さんもお父さんも自分の方を向いてくれるのではと。
そこで太郎は弟を殺す計画を立てました。
弟はいつもお母さんのおっぱいをの"
"6337447","control","0","20377","16000","output","1352","科学的なエビデンスとか、万人におけるさいｋ"
"839571","control","2","112959","27000","output","1981","ある日宇宙に小さな花が咲いていました。
その小さな花はいつか別の星に行きたいと願っていました。
なぜなら、その小さな花は意思を持っており自分が新天地に旅建つことを夢にみｔ"
"5398551","control","8","270273","33000","output","778","時代ははるか未来、AIが今より発展し、人間と区別がつかないほど進化し、独自の意識を持つほどになっている。それほどまでに進化した彼らには、人間の人権のような権利が認められ、人間と共存していた。
しかしAIは万能ではない。人間が時におかしくなり犯罪を犯すように、AIもまたそのかいろ"
"6233409","control","10","394246","17000","output","1934","二匹の猫が並んで歩いていました。
オスの猫は黒色、メスの猫は白色をしています。
黒色のオス猫は白色のメス猫の事がとても好きです。

向かい側からオスのトラ猫が歩いてきました。
トラ猫は白色のメス猫をとても気に入ったようです。

黒猫とトラ猫は白猫をめぐってのライバル関係になりました。
二匹とも白猫に気に入られるように何かプレゼントをあげようと考えます。

黒猫は白猫のためにどこかからソーセージを探して持ってきました。
トラ猫は白猫のためにどこかから煮干しを探して持ってきました。

白猫はどちらを食べようか迷っています。

黒猫とトラ猫はじっと目を合わせてにらみ合いながらい"
"1274239","control","6","240935","38000","revision","591","ある日の夕方のスーパー。
レジに並んでいたら前の男性がエプロンを着けていた。でもそのエプロンにはスーパーのロゴではなく「ただの客です」と書かれていた。会計を済ませた彼はカゴを持ったままこちらを見て言った。「今日はレジの順番、逆なんですよ。」
次の瞬間、レジ係が無言で私のカゴを持って外へ走っていった。"
"3710758","control","5","201255","32000","revision","1383","私はいま、北海道に旅行に来ています。
この旅行の目的はおいしいものをたくさん食べることです。
海に面していない県に住んでいるので、おいしい海鮮をおなか一杯に食べたいと、一年近く計画をしていました。
やっぱり北海道と言えばカニですね！
あとはホタテとか雲丹とかお寿司が食べたいです。
あと、北海道は牛乳がおいしそうなイメージがあるので、生クリームを使ったスイーツやソフトクリームを食べ歩きしたいです。
"
"3283357","control","2","94367","19000","output","1461","1702年、カリブ海のトルトゥーガの島の酒場に、ボロボロの男が入店してくる。"
"4758400","control","0","34490","31000","planning","1518","都内の路上。
とある人気女優が、"
"1919427","control","2","110860","24000","output","1677","てつのりは長すぎた髪を切ろうと考え、いつも通っている美容院に行くことにしｔ。
道中髪型をどうしようかと考えていたが、どうにも考えまとまらず、自然と"
"3922243","control","5","183771","44000","output","745","　目が覚めると、真っ白い何もない部屋にいた。
　自分がどうしてここにいるのかもよくわからない。
　今まで自分が何をしていたのか思い出そうとするが、頭に靄がかかったように記憶がぼんやりとしていた。

　しばらく部屋でぼーっとしていたが、ふと気が付くと部屋の真ん中に小さなテーブルがあった。
　先ほどまでは無かったはずなのに、と不思議に思いながら近づくと、テーブルの上には一枚の紙があった。


　「どうして」


　赤い文字でそれだけが書かれていた。
　なにが"
"3260097","control","10","338316","29000","output","1700","小さな子猫と独りぼっちで寂しい思いをしている少年が雨の中出会った。最初は全く子猫に興味がなかったが、自分と同じように一人でいる猫に親近感を覚え、いつしかこの子とずっと一緒にいたいと思うようになる。

そんなある日、少年はいたはずの猫の姿を見失ってしまう。とても不安になりそこらじゅうを探し回っていると、いつの間にか母猫を見つけて一緒にいられるようになっていた。

心から良かったと思う反面、何だか自分だけ取り残されたような気持ちになり、また一人ぼっちの孤独を味わっていたら、今度はその母猫が少年の近くまで来てじっと見つめた後、ぺこりと人間のようにお辞儀をしてこねｋ"
"1966230","control","1","82902","40000","other","1053",
"4960690","control","4","183267","32000","output","1143","右下腹部に痛みを感じていたが放置していた。
最初は筋肉痛だと思っており特に何も気にしていなかった。
ちょうど妻が健康診断の結果を踏まえて、大腸内視鏡検査を受けていた。
自分ももしかしてと思い、大腸の不調を疑い始めた。
すぐに消化器内科を受診した。
念のため、大腸内視鏡を受けましょうということで、三週間後に決まった。
その後不安を抱えながらも日常を過ごしていたが、痛みが強くなってきた。
どう考えてもきんにくｔ"
"4983408","control","7","245765","24000","output","1885","街外れにある小さな村に、一人の女の子がいました。魔法が使える世界にあるこの村の女の子は、魔法の勉強を毎日しています。今使える魔法は回復魔法。優しい女の子は自分の回復魔法を今以上に勉強をしたいと日々生きています。

こんな女の子は突然怪我をした男の子に出会いました。
「大丈夫？怪我はない？」
と聞くと、
「大したことない。イテテ"
"839571","control","3","133026","16000","planning","2227","ある日宇宙に小さな花が咲いていました。
その小さな花はいつか別の星に行きたいと願っていました。
なぜなら、その小さな花は意思を持っており自分が新天地に旅建つことを夢に見ていたからでした。

"
"1533311","control","6","240019","29000","output","1187","おばあさんとおじいさんが川に洗濯に行きました。そこへ桃が流れてきましたが、二人とも見逃してしまいました。ある日、二人の元へ少年が現れました。少年は私は桃太郎だと自慢げに名乗りましたが、おじいさんとおばあさんは意味がわかりません。少年は二人に桃太郎の絵本を読んだことがないのかと尋ねました。ふたりを"
"3585633","control","5","216850","43000","output","1397","私は、暗い夜道をひたすらに歩いていた。
ただまっすぐに、まっすぐに。
今が何時なのかは一切わからない。
極端に言えば、自分が誰なのかさえわかっていない。
ただただ、何かに追われているような気がして、焦っている。

何か心の中では、何とも言えない過去のる"
"3124577","control","12","440735","25000","revision","3028","太郎はお父さんとお母さんの3人家族でした。
あるとき太郎に弟ができることが判りました。
太郎はとても嬉しくて弟が生まれてくる日を楽しみにしていました。
そして3か月後、ついに弟が生まれました。
太郎は弟が可愛くて可愛くて仕方がありませんでした。
太郎は毎日毎日弟の世話をして大切に扱っていました。
ですが暫くするとお母さんもお父さんも弟ばかり構っていて自分を構ってもらえず不満を抱くようになりました。
あまりにも弟ばかり構っていて太郎は寂しくて仕方がありませんでした。
そこで太郎は思いつきます。
弟が死んでしまえばお母さんもお父さんも自分の方を向いてくれるのではと。
そこで太郎は弟を殺す計画を立てました。
弟はいつもお母さんのおっぱいを飲んでいたので、太郎はお母さんのおっぱいに毒をぬること"
"6233409","control","11","416086","19000","output","1839","二匹の猫が並んで歩いていました。
オスの猫は黒色、メスの猫は白色をしています。
黒色のオス猫は白色のメス猫の事がとても好きです。

向かい側からオスのトラ猫が歩いてきました。
トラ猫は白色のメス猫をとても気に入ったようです。

黒猫とトラ猫は白猫をめぐってのライバル関係になりました。
二匹とも白猫に気に入られるように何かプレゼントをあげようと考えます。

黒猫は白猫のためにどこかからソーセージを探して持ってきました。
トラ猫は白猫のためにどこかから煮干しを探して持ってきました。

白猫はどちらを食べようか迷っています。

黒猫とトラ猫はじっと目を合わせてにらみ合いながら一歩もゆずらない気持ちです。

しばらく"
"438363","control","4","191479","32000","output","2155","僕は川沿いをランニングするのが日課だった。サッカー部に入っているのだが、部活を終えた後も、足腰を鍛え、持久力を付けるために、一度家に帰った後も、こうしてランニングに励むのだった。ある日、何時ものように川沿いを走っていると突然、空が真っ黒な雲に覆われ、雷の音が響いてきた。大きな雨粒がｐ"
"6337447","control","1","53775","29000","revision","1182","科学的なエビデンスとか、万人における再現性がどこまであるかはわからないんだけど、「身近なものを使って無料でたのしｋ"
"3922243","control","6","203825","17000","output","1469","　目が覚めると、真っ白い何もない部屋にいた。
　自分がどうしてここにいるのかもよくわからない。
　今まで自分が何をしていたのか思い出そうとするが、頭に靄がかかったように記憶がぼんやりとしていた。

　しばらく部屋でぼーっとしていたが、ふと気が付くと部屋の真ん中に小さなテーブルがあった。
　先ほどまでは無かったはずなのに、と不思議に思いながら近づくと、テーブルの上には一枚の紙があった。


　「どうして」


　赤い文字でそれだけが書かれていた。
　なにがどうしてなのだろう？そして誰がこれを書いたのだろう。
　様々な疑問が"
"2752457","control","6","270504","43000","output","1210","ある日、世界中に未知のウイルスが蔓延し始める。そのウイルスに感染した者には、当初微熱が発症する。単なる風邪だろうとたかをくくっていると、その数日後に高熱・頭痛・悪寒・吐き気などの重症に発展していく。ついには吐血・目眩・意識混濁に陥り、最終的に絶命に至る。このウイルスの猛威の前に、世界の名だたる医学者たちも全くなすすべがなかった。"
"3283357","control","3","126390","28000","output","1577","1702年、カリブ海のトルトゥーガの島。海賊たちがたむろする酒場に、ボロボロの男が入店してくる。その男に声をかける"
"5398551","control","9","309283","36000","output","850","時代ははるか未来、AIが今より発展し、人間と区別がつかないほど進化し、独自の意識を持つほどになっている。それほどまでに進化した彼らには、人間の人権のような権利が認められ、人間と共存していた。
しかしAIは万能ではない。人間が時におかしくなり犯罪を犯すように、AIもまたその回路に変調をきたすことがあり、そうなった場合彼らは罪を犯してしまう。人間以上に強靭なキカイノカラダを持つｋ"
"3710758","control","6","236560","31000","revision","2625","私はいま、北海道に旅行に来ています。
この旅行の目的はおいしいものをたくさん食べることです。
海に面していない県に住んでいるので、おいしい海鮮をおなか一杯に食べたいと、一年近く計画をしていました。
やっぱり北海道と言えばカニですね！
あとはホタテとか雲丹とかお寿司が食べたいです。
あと、北海道は牛乳がおいしそうなイメージがあるので、生クリームを使ったスイーツやソフトクリームを食べ歩きしたいです。
旅行の日程が2泊3日なので食べ歩くのにも限界がありますが、できる限り北海道の職を
"
"1274239","control","7","278840","35000","planning","1556","ある日の夕方のスーパー。
レジに並んでいたら前の男性がエプロンを着けていた。でもそのエプロンにはスーパーのロゴではなく「ただの客です」と書かれていた。会計を済ませた彼はカゴを持ったままこちらを見て言った。「今日はレジの順番、逆なんですよ。」
次の瞬間、レジ係が無言で私のカゴを持って外へ走っていった。"
"1533311","control","7","262684","19000","planning","980","おばあさんとおじいさんが川に洗濯に行きました。そこへ桃が流れてきましたが、二人とも見逃してしまいました。ある日、二人の元へ少年が現れました。少年は私は桃太郎だと自慢げに名乗りましたが、おじいさんとおばあさんは意味がわかりません。少年は二人に桃太郎の絵本を読んだことがないのかと尋ねました。二人は首を横に振りました。仕方なく少年は"
"4758400","control","1","77536","39000","planning","1360","都内の路上。
とある人気女優が、帰路へと着いていた。
そんな時、"
"438363","control","5","216575","17000","other","1128","僕は川沿いをランニングするのが日課だった。サッカー部に入っているのだが、部活を終えた後も、足腰を鍛え、持久力を付けるために、一度家に帰った後も、こうしてランニングに励むのだった。ある日、何時ものように川沿いを走っていると突然、空が真っ黒な雲に覆われ、雷の音が響いてきた。大きな雨粒がポツポツと降ってきて、僕の顔に当たる。「"
"3124577","control","13","466344","22000","revision","1920","太郎はお父さんとお母さんの3人家族でした。
あるとき太郎に弟ができることが判りました。
太郎はとても嬉しくて弟が生まれてくる日を楽しみにしていました。
そして3か月後、ついに弟が生まれました。
太郎は弟が可愛くて可愛くて仕方がありませんでした。
太郎は毎日毎日弟の世話をして大切に扱っていました。
ですが暫くするとお母さんもお父さんも弟ばかり構っていて自分を構ってもらえず不満を抱くようになりました。
あまりにも弟ばかり構っていて太郎は寂しくて仕方がありませんでした。
そこで太郎は思いつきます。
弟が死んでしまえばお母さんもお父さんも自分の方を向いてくれるのではと。
そこで太郎は弟を殺す計画を立てました。
弟はいつもお母さんのおっぱいを飲んでいたので、太郎はお母さんのおっぱいに毒を塗ることにしました。
お母さんが眠っているこｔ"
"6233409","control","12","444558","25000","output","1543","二匹の猫が並んで歩いていました。
オスの猫は黒色、メスの猫は白色をしています。
黒色のオス猫は白色のメス猫の事がとても好きです。

向かい側からオスのトラ猫が歩いてきました。
トラ猫は白色のメス猫をとても気に入ったようです。

黒猫とトラ猫は白猫をめぐってのライバル関係になりました。
二匹とも白猫に気に入られるように何かプレゼントをあげようと考えます。

黒猫は白猫のためにどこかからソーセージを探して持ってきました。
トラ猫は白猫のためにどこかから煮干しを探して持ってきました。

白猫はどちらを食べようか迷っています。

黒猫とトラ猫はじっと目を合わせてにらみ合いながら一歩もゆずらない気持ちです。

しばらくにらみ合った後、ふと気が付くと白猫がいつの間にかいなくなっていた事に気が付きました。ソーセージとにぼ"
"839571","control","4","168467","30000","planning","2809","ある日宇宙に小さな花が咲いていました。
その小さな花はいつか別の星に行きたいと願っていました。
なぜなら、その小さな花は意思を持っており自分が新天地に旅建つことを夢に見ていたからでした。

ですが、その小さな花は所詮花なのでそこから動くことができませんでした。なので、"
"3260097","control","11","378148","37000","revision","1684","小さな子猫と独りぼっちで寂しい思いをしている少年が雨の中出会った。最初は全く子猫に興味がなかったが、自分と同じように一人でいる猫に親近感を覚え、いつしかこの子とずっと一緒にいたいと思うようになる。

そんなある日、少年はいたはずの猫の姿を見失ってしまう。とても不安になりそこらじゅうを探し回っていると、いつの間にか母猫を見つけて一緒にいられるようになっていた。

心から良かったと思う反面、何だか自分だけ取り残されたような気持ちになり、また一人ぼっちの孤独を味わっていたら、今度はその母猫が少年の近くまで来てじっと見つめた後、ぺこりと人間のようにお辞儀をして子猫と一緒にその場を後にしていった。

"
"3283357","control","4","146358","17000","output","1307","1702年、カリブ海のトルトゥーガの島。海賊たちがたむろする酒場に、ボロボロの男が入店してくる。その男に声をかける赤いバンダナの男。「おい、あんた、どうした？」"
"1919427","control","3","158309","43000","planning","2086","てつのりは長すぎた髪を切ろうと考え、いつも通っている美容院に行くことにした。
道中髪型をどうしようかと考えていたが、どうにも考えまとまらず、頭の中は自然と今年の夏のことに。

"
"1966230","control","2","127630","39000","output","3136","A子は楽しみにしていた映画に"
"1533311","control","8","281141","15000","planning","930","おばあさんとおじいさんが川に洗濯に行きました。そこへ桃が流れてきましたが、二人とも見逃してしまいました。ある日、二人の元へ少年が現れました。少年は私は桃太郎だと自慢げに名乗りましたが、おじいさんとおばあさんは意味がわかりません。少年は二人に桃太郎の絵本を読んだことがないのかと尋ねました。二人は首を横に振りました。仕方なく少年は桃太郎という絵本を"
"4960690","control","5","230335","44000","output","1119","右下腹部に痛みを感じていたが放置していた。
最初は筋肉痛だと思っており特に何も気にしていなかった。
ちょうど妻が健康診断の結果を踏まえて、大腸内視鏡検査を受けていた。
自分ももしかしてと思い、大腸の不調を疑い始めた。
すぐに消化器内科を受診した。
念のため、大腸内視鏡を受けましょうということで、三週間後に決まった。
その後不安を抱えながらも日常を過ごしていたが、痛みが強くなってきた。
どう考えても筋肉的な痛みのため、腹壁瘢痕ヘルニアを疑った。
エコーで確認が取れないか、近所にクリニックを受診した。
おおｋ"
"4983408","control","8","291526","42000","planning","1040","街外れにある小さな村に、一人の女の子がいました。魔法が使える世界にあるこの村の女の子は、魔法の勉強を毎日しています。今使える魔法は回復魔法。優しい女の子は自分の回復魔法を今以上に勉強をしたいと日々生きています。

こんな女の子は突然怪我をした男の子に出会いました。
「大丈夫？怪我はない？」
と聞くと、
「大したことない。イテテ。ちょっと転んで擦りむいただけ。こんなのへっちゃらさ。」
と"
"6337447","control","2","90213","32000","output","1171","科学的なエビデンスとか、万人における再現性がどこまであるかはわからないんだけど、「身近なものを使って無料で楽しく遊んでいるうちに、自然に脳のワーキングメモリも鍛えられるなら最高じゃね？」という可能性に"
"3585633","control","6","261572","37000","planning","1694","私は、暗い夜道をひたすらに歩いていた。
ただまっすぐに、まっすぐに。
今が何時なのかは一切わからない。
極端に言えば、自分が誰なのかさえわかっていない。
ただただ、何かに追われているような気がして、焦っている。

何か心の中では、何とも言えない過去という恐怖から逃れているようにも感じる。"
"5398551","control","10","340449","28000","output","910","時代ははるか未来、AIが今より発展し、人間と区別がつかないほど進化し、独自の意識を持つほどになっている。それほどまでに進化した彼らには、人間の人権のような権利が認められ、人間と共存していた。
しかしAIは万能ではない。人間が時におかしくなり犯罪を犯すように、AIもまたその回路に変調をきたすことがあり、そうなった場合彼らは罪を犯してしまう。人間以上に強靭なキカイノカラダを持つ彼ら、その蛮行を止めるには、これまでの警察機構とは異なる"
"3710758","control","7","267992","21000","planning","840","私はいま、北海道に旅行に来ています。
この旅行の目的はおいしいものをたくさん食べることです。
海に面していない県に住んでいるので、おいしい海鮮をおなか一杯に食べたいと、一年近く計画をしていました。
やっぱり北海道と言えばカニですね！
あとはホタテとか雲丹とかお寿司が食べたいです。
あと、北海道は牛乳がおいしそうなイメージがあるので、生クリームを使ったスイーツやソフトクリームを食べ歩きしたいです。
旅行の日程が2泊3日なので食べ歩くのにも限界がありますが、できる限り北海道の食を満喫して帰りたいと思います。
"
"2752457","control","7","310461","37000","planning","1114","ある日、中国のとある農村部に未知のウイルスが蔓延し始める。そのウイルスに感染した者には、当初微熱が発症する。単なる風邪だろうとたかをくくっていると、その数日後に高熱・頭痛・悪寒・吐き気などの重症に発展していく。ついには吐血・目眩・意識混濁に陥り、最終的に絶命に至る。このウイルスの猛威の前に、世界の名だたる医学者たちも全くなすすべがなかった。"
"3922243","control","7","247465","41000","output","931","　目が覚めると、真っ白い何もない部屋にいた。
　自分がどうしてここにいるのかもよくわからない。
　今まで自分が何をしていたのか思い出そうとするが、頭に靄がかかったように記憶がぼんやりとしていた。

　しばらく部屋でぼーっとしていたが、ふと気が付くと部屋の真ん中に小さなテーブルがあった。
　先ほどまでは無かったはずなのに、と不思議に思いながら近づくと、テーブルの上には一枚の紙があった。


　「どうして」


　赤い文字でそれだけが書かれていた。
　なにがどうしてなのだろう？そして誰がこれを書いたのだろう。
　様々な疑問が湧き上がってくる。と同時になんだか胸騒ぎもする。

　しばしの間、その紙を眺めていたが、ふと視線を"
"4758400","control","2","104500","24000","output","1370","都内の路上。
とある人気女優が、帰路へと着いていた。
そんな時、道端で弱った黒猫を見つける。
明日は休みということもあって、彼女は自宅に連れ帰って"
"1919427","control","4","177931","15000","output","3161","てつのりは長すぎた髪を切ろうと考え、いつも通っている美容院に行くことにした。
道中髪型をどうしようかと考えていたが、どうにも考えまとまらず、頭の中は自然と今年の夏のことに。

猛暑日が続く中、おじいちゃん
"
"3124577","control","14","494760","25000","revision","1521","太郎はお父さんとお母さんの3人家族でした。
あるとき太郎に弟ができることが判りました。
太郎はとても嬉しくて弟が生まれてくる日を楽しみにしていました。
そして3か月後、ついに弟が生まれました。
太郎は弟が可愛くて可愛くて仕方がありませんでした。
太郎は毎日毎日弟の世話をして大切に扱っていました。
ですが暫くするとお母さんもお父さんも弟ばかり構っていて自分を構ってもらえず不満を抱くようになりました。
あまりにも弟ばかり構っていて太郎は寂しくて仕方がありませんでした。
そこで太郎は思いつきます。
弟が死んでしまえばお母さんもお父さんも自分の方を向いてくれるのではと。
そこで太郎は弟を殺す計画を立てました。
弟はいつもお母さんのおっぱいを飲んでいたので、太郎はお母さんのおっぱいに毒を塗ることにしました。
お母さんが眠っていることを確認すると太郎はお母さんのおっぱいにどくを"
"1274239","control","8","315799","34000","revision","1658","ある日の夕方のスーパー。
レジに並んでいたら前の男性がエプロンを着けていた。でもそのエプロンにはスーパーのロゴではなく「ただの客です」と書かれていた。会計を済ませた彼はカゴを持ったままこちらを見て言った。「今日はレジの順番、逆なんですよ。」
次の瞬間、レジ係が無言で私のカゴを持って外へ走っていった。"
"438363","control","6","248007","27000","output","1093","僕は川沿いをランニングするのが日課だった。サッカー部に入っているのだが、部活を終えた後も、足腰を鍛え、持久力を付けるために、一度家に帰った後も、こうしてランニングに励むのだった。ある日、何時ものように川沿いを走っていると突然、空が真っ黒な雲に覆われ、雷の音が響いてきた。大きな雨粒がポツポツと降ってきて、僕の顔に当たる。「雷雨だ」と慌てて、近くの大きな樹の下に"
"1966230","control","3","152303","21000","output","1332","A子は楽しみにしていた映画を観にショッピングモールへと足を運んでいた。チケットをこう"
"4960690","control","6","253259","20000","output","1108","右下腹部に痛みを感じていたが放置していた。
最初は筋肉痛だと思っており特に何も気にしていなかった。
ちょうど妻が健康診断の結果を踏まえて、大腸内視鏡検査を受けていた。
自分ももしかしてと思い、大腸の不調を疑い始めた。
すぐに消化器内科を受診した。
念のため、大腸内視鏡を受けましょうということで、三週間後に決まった。
その後不安を抱えながらも日常を過ごしていたが、痛みが強くなってきた。
どう考えても筋肉的な痛みのため、腹壁瘢痕ヘルニアを疑った。
エコーで確認が取れないか、近所にクリニックを受診した。
大きな病院でCTをやらないとわからないということでしょう"
"3260097","control","12","415884","35000","output","1204","小さな子猫と独りぼっちで寂しい思いをしている少年が雨の中出会った。最初は全く子猫に興味がなかったが、自分と同じように一人でいる猫に親近感を覚え、いつしかこの子とずっと一緒にいたいと思うようになる。

そんなある日、少年はいたはずの猫の姿を見失ってしまう。とても不安になりそこらじゅうを探し回っていると、いつの間にか母猫を見つけて一緒にいられるようになっていた。

心から良かったと思う反面、何だか自分だけ取り残されたような気持ちになり、また一人ぼっちの孤独を味わっていたら、今度はその母猫が少年の近くまで来てじっと見つめた後、ぺこりと人間のようにお辞儀をして子猫と一緒にその場を後にしていった。

自分に感謝してくれたのかな？僕は何かの役に立てた？そう"
"4983408","control","9","322157","28000","output","981","街外れにある小さな村に、一人の女の子がいました。魔法が使える世界にあるこの村の女の子は、魔法の勉強を毎日しています。今使える魔法は回復魔法。優しい女の子は自分の回復魔法を今以上に勉強をしたいと日々生きています。

こんな女の子は突然怪我をした男の子に出会いました。
「大丈夫？怪我はない？」
と聞くと、
「大したことない。イテテ。ちょっと転んで擦りむいただけ。こんなのへっちゃらさ。」
と女の子に良いところを見せたい一心で返事をしました。
女の子は"
"3922243","control","8","270943","21000","revision","831","　目が覚めると、真っ白い何もない部屋にいた。
　自分がどうしてここにいるのかもよくわからない。
　今まで自分が何をしていたのか思い出そうとするが、頭に靄がかかったように記憶がぼんやりとしていた。

　しばらく部屋でぼーっとしていたが、ふと気が付くと部屋の真ん中に小さなテーブルがあった。
　先ほどまでは無かったはずなのに、と不思議に思いながら近づくと、テーブルの上には一枚の紙があった。


　「どうして」


　赤い文字でそれだけが書かれていた。
　なにがどうしてなのだろう？そして誰がこれを書いたのだろう。
　様々な疑問が湧き上がってくる。と同時になんだか胸騒ぎもする。

　しばしの間、その紙を眺めていたが、ふと視線を上げると部屋の中に一つだけ扉があらわれていｒ"
"6233409","control","13","490526","43000","output","1413","二匹の猫が並んで歩いていました。
オスの猫は黒色、メスの猫は白色をしています。
黒色のオス猫は白色のメス猫の事がとても好きです。

向かい側からオスのトラ猫が歩いてきました。
トラ猫は白色のメス猫をとても気に入ったようです。

黒猫とトラ猫は白猫をめぐってのライバル関係になりました。
二匹とも白猫に気に入られるように何かプレゼントをあげようと考えます。

黒猫は白猫のためにどこかからソーセージを探して持ってきました。
トラ猫は白猫のためにどこかから煮干しを探して持ってきました。

白猫はどちらを食べようか迷っています。

黒猫とトラ猫はじっと目を合わせてにらみ合いながら一歩もゆずらない気持ちです。

しばらくするといつの間にか白猫がいなくなっている事に気が付きました。
ソーセージと煮干しはそのまま残っています。

二匹は慌てて白猫を探しました。すると少しはなれ"
"1533311","control","9","318716","35000","planning","834","おばあさんとおじいさんが川に洗濯に行きました。そこへ桃が流れてきましたが、二人とも見逃してしまいました。ある日、二人の元へ少年が現れました。少年は私は桃太郎だと自慢げに名乗りましたが、おじいさんとおばあさんは意味がわかりません。少年は二人に桃太郎の絵本を読んだことがないのかと尋ねました。二人は首を横に振りました。仕方なく少年は桃太郎という絵本を取り出しおじいさんとおばあさんに読み聞かせを始めました。"
"839571","control","5","214674","41000","output","3131","ある日宇宙に小さな花が咲いていました。
その小さな花はいつか別の星に行きたいと願っていました。
なぜなら、その小さな花は意思を持っており自分が新天地に旅建つことを夢に見ていたからでした。

ですが、その小さな花は所詮花なのでそこから動くことができませんでした。なので、宇宙の旅行者が自分のところに来て一緒に連れて行って欲しいとねが"
"3585633","control","7","296495","32000","revision","979","私は、暗い夜道をひたすらに歩いていた。
ただまっすぐに、まっすぐに。
今が何時なのかは一切わからない。
極端に言えば、自分が誰なのかさえわかっていない。
ただただ、何かに追われているような気がして、焦っている。

何か心の中では、何とも言えない過去という恐怖から逃れているようにも感じる。"
"3283357","control","5","192352","42000","output","1488","1702年、カリブ海のトルトゥーガの島。海賊たちがたむろする酒場に、ボロボロの男が入店してくる。その男に声をかける赤いバンダナの男。「おい、あんた、どうした？　ここらじゃ見ない顔だな。」
ボロボロの男は答える。「オレは、ドラゴン海賊団のレイヴ。」"
"3710758","control","8","301695","30000","planning","1378","私はいま、北海道に旅行に来ています。
この旅行の目的はおいしいものをたくさん食べることです。
海に面していない県に住んでいるので、おいしい海鮮をおなか一杯に食べたいと、一年近く計画をしていました。
やっぱり北海道と言えばカニですね！
あとはホタテとか雲丹とかお寿司が食べたいです。
あと、北海道は牛乳がおいしそうなイメージがあるので、生クリームを使ったスイーツやソフトクリームを食べ歩きしたいです。
旅行の日程が2泊3日なので食べ歩くのにも限界がありますが、できる限り北海道の食を満喫して帰りたいと思います。
という見知らぬ人のSNS投稿を見て、自分も北海道へ行きたくなりました。"
"3124577","control","15","522288","24000","revision","2192","太郎はお父さんとお母さんの3人家族でした。
あるとき太郎に弟ができることが判りました。
太郎はとても嬉しくて弟が生まれてくる日を楽しみにしていました。
そして3か月後、ついに弟が生まれました。
太郎は弟が可愛くて可愛くて仕方がありませんでした。
太郎は毎日毎日弟の世話をして大切に扱っていました。
ですが暫くするとお母さんもお父さんも弟ばかり構っていて自分を構ってもらえず不満を抱くようになりました。
あまりにも弟ばかり構っていて太郎は寂しくて仕方がありませんでした。
そこで太郎は思いつきます。
弟が死んでしまえばお母さんもお父さんも自分の方を向いてくれるのではと。
そこで太郎は弟を殺す計画を立てました。
弟はいつもお母さんのおっぱいを飲んでいたので、太郎はお母さんのおっぱいに毒を塗ることにしました。
お母さんが眠っていることを確認すると太郎はお母さんのおっぱいに毒を塗りました。
これで明日、弟がおっぱいを飲めば独で"
"438363","control","7","272919","20000","output","894","僕は川沿いをランニングするのが日課だった。サッカー部に入っているのだが、部活を終えた後も、足腰を鍛え、持久力を付けるために、一度家に帰った後も、こうしてランニングに励むのだった。ある日、何時ものように川沿いを走っていると突然、空が真っ黒な雲に覆われ、雷の音が響いてきた。大きな雨粒がポツポツと降ってきて、僕の顔に当たる。「雷雨だ」と慌てて、近くの大きな樹の下に雨宿りをした。あめははげしくなるばかりだ"
"6337447","control","3","130796","37000","revision","1113","科学的なエビデンスとか、万人における再現性がどこまであるかはわからないんだけど、「身近なものを使って無料で楽しく遊んでいるうちに、自然に脳のワーキングメモリも鍛えられるなら最高じゃね？」という可能性について。

まず、用意するのは、ランダムな「4桁の数字」。個人的におすすめなのは、「今のじこく"
"2752457","control","8","346418","33000","planning","1235","ある日、中国のとある農村部に未知のウイルスが蔓延し始める。そのウイルスに感染した者には、当初微熱が発症する。単なる風邪だろうとたかをくくっていると、その数日後に高熱・頭痛・悪寒・吐き気などの重症に発展していく。ついには吐血・目眩・意識混濁に陥り、最終的に絶命に至る。このウイルスの猛威の前に、中国国内の名だたる医学者たちも全くなすすべがなかった。新種のウイルスの感染は"
"4758400","control","3","138824","31000","other","1214","都内の路上。
とある人気女優が、帰路へと着いていた。
そんな時、道端で弱った黒猫を見つける。
明日は休みということもあって、彼女は自宅に連れ帰って看病した。
その猫は見る見る元気になり、彼女は安堵して床に就いた。
"
"5398551","control","11","384199","41000","planning","778","時代ははるか未来、AIが今より発展し、人間と区別がつかないほど進化し、独自の意識を持つほどになっている。それほどまでに進化した彼らには、人間の人権のような権利が認められ、人間と共存していた。
しかしAIは万能ではない。人間が時におかしくなり犯罪を犯すように、AIもまたその回路に変調をきたすことがあり、そうなった場合彼らは罪を犯してしまう。人間以上に強靭なキカイノカラダを持つ彼ら、その蛮行を止めるには、これまでの警察機構とは異なる、彼ら専用の強力な抑止となるものが必要になった。そうしてせつりつ"
"1966230","control","4","181078","25000","output","1359","A子は楽しみにしていた映画を観にショッピングモールへとくるｍ"
"4960690","control","7","281215","25000","output","1104","右下腹部に痛みを感じていたが放置していた。
最初は筋肉痛だと思っており特に何も気にしていなかった。
ちょうど妻が健康診断の結果を踏まえて、大腸内視鏡検査を受けていた。
自分ももしかしてと思い、大腸の不調を疑い始めた。
すぐに消化器内科を受診した。
念のため、大腸内視鏡を受けましょうということで、三週間後に決まった。
その後不安を抱えながらも日常を過ごしていたが、痛みが強くなってきた。
どう考えても筋肉的な痛みのため、腹壁瘢痕ヘルニアを疑った。
エコーで確認が取れないか、近所にクリニックを受診した。
大きな病院でCTをやらないとわからないということで紹介状をもらって予約を済ませた。
その予約ｂ"
"1919427","control","5","216880","34000","planning","1655","てつのりは長すぎた髪を切ろうと考え、いつも通っている美容院に行くことにした。
道中髪型をどうしようかと考えていたが、どうにも考えまとまらず、頭の中は自然と今年の夏のことに。

猛暑日が続く中、おじいちゃんが死んだという報が届いたのは8月の中旬だった。
てつのりは幼少期から
"
"1274239","control","9","358688","41000","output","847","ある日の真夜中。僕はどうしてもお腹が空いて台所でカップ麺を作ろうとしていた。お湯を注いでふたを閉じ、キッチンタイマーを3分にセット。タイマーが「ピッ」と鳴った瞬間、どこからともなくドアベルが鳴った。

こんな時間に誰だろうと思って玄関を開けると、作業服を着た配達員が立っていた。
胸には「ラーメン納品部」と書かれたワッペン。

「お待たせしました、納期通りです」

配達員は、両手で大きな箱を差し出してきた。
中には、作りかけのカップ麺がぎっしり詰まっている。
すべて、お湯を入れてちょうど3分経った状態らしい。

「いや、もう作ってあるんで…」と言うと、配達員は一枚の書類を見せた。
『深夜即席麺契約書　第7条　3分後の納品義務』と書かれている。

「契約って…いつですか？」

配達員は少し困った顔で答えた。
「小学校3年生のとき、給食でラーメン食べましたよね？　あれです。」

結局、山本は一晩で14個のカップ麺を食べきった。
翌朝、食器棚を開けると、中はどんぶり麺でぎっしり埋まっていた。

そこには新しい書類が置かれていた。"
"6233409","control","14","516510","22000","planning","2822","二匹の猫が並んで歩いていました。
オスの猫は黒色、メスの猫は白色をしています。
黒色のオス猫は白色のメス猫の事がとても好きです。

向かい側からオスのトラ猫が歩いてきました。
トラ猫は白色のメス猫をとても気に入ったようです。

黒猫とトラ猫は白猫をめぐってのライバル関係になりました。
二匹とも白猫に気に入られるように何かプレゼントをあげようと考えます。

黒猫は白猫のためにどこかからソーセージを探して持ってきました。
トラ猫は白猫のためにどこかから煮干しを探して持ってきました。

白猫はどちらを食べようか迷っています。

黒猫とトラ猫はじっと目を合わせてにらみ合いながら一歩もゆずらない気持ちです。

しばらくするといつの間にか白猫がいなくなっている事に気が付きました。
ソーセージと煮干しはそのまま残っています。

二匹は慌てて白猫を探しました。すると少し離れたところに白猫がいました。
よく見ると毛並みのいい"
"4983408","control","10","351430","27000","output","927","街外れにある小さな村に、一人の女の子がいました。魔法が使える世界にあるこの村の女の子は、魔法の勉強を毎日しています。今使える魔法は回復魔法。優しい女の子は自分の回復魔法を今以上に勉強をしたいと日々生きています。

こんな女の子は突然怪我をした男の子に出会いました。
「大丈夫？怪我はない？」
と聞くと、
「大したことない。イテテ。ちょっと転んで擦りむいただけ。こんなのへっちゃらさ。」
と女の子に良いところを見せたい一心で返事をしました。
女の子は男の子の怪我を治したい一心で回復魔法を使いました。"
"3124577","control","16","541896","15000","revision","1674","太郎はお父さんとお母さんの3人家族でした。
あるとき太郎に弟ができることが判りました。
太郎はとても嬉しくて弟が生まれてくる日を楽しみにしていました。
そして3か月後、ついに弟が生まれました。
太郎は弟が可愛くて可愛くて仕方がありませんでした。
太郎は毎日毎日弟の世話をして大切に扱っていました。
ですが暫くするとお母さんもお父さんも弟ばかり構っていて自分を構ってもらえず不満を抱くようになりました。
あまりにも弟ばかり構っていて太郎は寂しくて仕方がありませんでした。
そこで太郎は思いつきます。
弟が死んでしまえばお母さんもお父さんも自分の方を向いてくれるのではと。
そこで太郎は弟を殺す計画を立てました。
弟はいつもお母さんのおっぱいを飲んでいたので、太郎はお母さんのおっぱいに毒を塗ることにしました。
お母さんが眠っていることを確認すると太郎はお母さんのおっぱいに毒を塗りました。
これで明日、弟がおっぱいを飲めば毒で死んでしまうだろうとき"
"1533311","control","10","344778","23000","planning","828","おばあさんとおじいさんが川に洗濯に行きました。そこへ桃が流れてきましたが、二人とも見逃してしまいました。ある日、二人の元へ少年が現れました。少年は私は桃太郎だと自慢げに名乗りましたが、おじいさんとおばあさんは意味がわかりません。少年は二人に桃太郎の絵本を読んだことがないのかと尋ねました。二人は首を横に振りました。仕方なく少年は桃太郎という絵本を取り出しおじいさんとおばあさんに読み聞かせを始めました。"
"5398551","control","12","403270","16000","planning","1003","時代ははるか未来、AIが今より発展し、人間と区別がつかないほど進化し、独自の意識を持つほどになっている。それほどまでに進化した彼らには、人間の人権のような権利が認められ、人間と共存していた。
しかしAIは万能ではない。人間が時におかしくなり犯罪を犯すように、AIもまたその回路に変調をきたすことがあり、そうなった場合彼らは罪を犯してしまう。人間以上に強靭なキカイノカラダを持つ彼ら、その蛮行を止めるには、これまでの警察機構とは異なる、彼ら専用の強力な抑止となるものが必要になった。そうして設立されたのが、対AI"
"2752457","control","9","372140","23000","planning","1057","ある日、中国のとある農村部に未知のウイルスが蔓延し始める。そのウイルスに感染した者には、当初微熱が発症する。単なる風邪だろうとたかをくくっていると、その数日後に高熱・頭痛・悪寒・吐き気などの重症に発展していく。ついには吐血・目眩・意識混濁に陥り、最終的に絶命に至る。このウイルスの猛威の前に、中国国内の名だたる医学者たちも全くなすすべがなかった。新種のウイルスは農村部を起点に"
"4960690","control","8","300563","16000","output","1546","右下腹部に痛みを感じていたが放置していた。
最初は筋肉痛だと思っており特に何も気にしていなかった。
ちょうど妻が健康診断の結果を踏まえて、大腸内視鏡検査を受けていた。
自分ももしかしてと思い、大腸の不調を疑い始めた。
すぐに消化器内科を受診した。
念のため、大腸内視鏡を受けましょうということで、三週間後に決まった。
その後不安を抱えながらも日常を過ごしていたが、痛みが強くなってきた。
どう考えても筋肉的な痛みのため、腹壁瘢痕ヘルニアを疑った。
エコーで確認が取れないか、近所にクリニックを受診した。
大きな病院でCTをやらないとわからないということで紹介状をもらって予約を済ませた。
その予約日が来る前に、痛みが強く危機感を感じて"
"3922243","control","9","308433","35000","output","674","　目が覚めると、真っ白い何もない部屋にいた。
　自分がどうしてここにいるのかもよくわからない。
　今まで自分が何をしていたのか思い出そうとするが、頭に靄がかかったように記憶がぼんやりとしていた。

　しばらく部屋でぼーっとしていたが、ふと気が付くと部屋の真ん中に小さなテーブルがあった。
　先ほどまでは無かったはずなのに、と不思議に思いながら近づくと、テーブルの上には一枚の紙があった。


　「どうして」


　赤い文字でそれだけが書かれていた。
　なにがどうしてなのだろう？そして誰がこれを書いたのだろう。
　様々な疑問が湧き上がってくる。と同時になんだか胸騒ぎもする。

　しばしの間、その紙を眺めていたが、ふと視線を上げると部屋の中に一つだけ扉が表れていた。
　何の変哲もない扉ではあったが、心の中ではなぜかその扉を開けてはいけないと強く"
"4758400","control","4","166500","24000","output","1917","都内の路上。
とある人気女優が、帰路へと着いていた。
そんな時、道端で弱った黒猫を見つける。
明日は休みということもあって、彼女は自宅に連れ帰って看病した。
その猫は見る見る元気になり、彼女は安堵して床に就いた。
翌朝、彼女が目覚めると、何と"
"839571","control","6","252336","33000","planning","2595","ある日宇宙に小さな花が咲いていました。
その小さな花はいつか別の星に行きたいと願っていました。
なぜなら、その小さな花は意思を持っており自分が新天地に旅建つことを夢に見ていたからでした。

ですが、その小さな花は所詮花なのでそこから動くことができませんでした。なので、宇宙の旅行者が自分のところに来て一緒に連れて行って欲しいと願っていました。

それしか、その小さな花が新天地に行く手段はなかったからです。そして、"
"3260097","control","13","460829","41000","planning","1596","小さな子猫と独りぼっちで寂しい思いをしている少年が雨の中出会った。最初は全く子猫に興味がなかったが、自分と同じように一人でいる猫に親近感を覚え、いつしかこの子とずっと一緒にいたいと思うようになる。

そんなある日、少年はいたはずの猫の姿を見失ってしまう。とても不安になりそこらじゅうを探し回っていると、いつの間にか母猫を見つけて一緒にいられるようになっていた。

心から良かったと思う反面、何だか自分だけ取り残されたような気持ちになり、また一人ぼっちの孤独を味わっていたら、今度はその母猫が少年の近くまで来てじっと見つめた後、ぺこりと人間のようにお辞儀をして子猫と一緒にその場を後にしていった。

自分に感謝してくれたのかな？僕は何かの役に立てた？そう思ったら急に嬉しくなり、自分でも誰かの役に立ったりできるんだと思うようになり、それ以来"
"3710758","control","9","337703","33000","revision","1155","私はいま、北海道に旅行に来ています。
この旅行の目的はおいしいものをたくさん食べることです。
海に面していない県に住んでいるので、おいしい海鮮をおなか一杯に食べたいと、一年近く計画をしていました。
やっぱり北海道と言えばカニですね！
あとはホタテとか雲丹とかお寿司が食べたいです。
あと、北海道は牛乳がおいしそうなイメージがあるので、生クリームを使ったスイーツやソフトクリームを食べ歩きしたいです。
旅行の日程が2泊3日なので食べ歩くのにも限界がありますが、できる限り北海道の食を満喫して帰りたいと思います。
という見知らぬ人のSNS投稿を見て、自分も北海道へ行きたくなりました。
最近は旅費がどんどん高くなってきているので、ぜひドラえもんにどこでもドアをお借りしたいです。"
"1274239","control","10","378519","18000","output","847","ある日の真夜中。僕はどうしてもお腹が空いて台所でカップ麺を作ろうとしていた。
お湯を注いでふたを閉じ、キッチンタイマーを3分にセット。
タイマーが「ピッ」と鳴った瞬間どこからともなくドアベルが鳴った。こんな時間に誰だろうと思って玄関を開けると、作業服を着た配達員が立っていた。
胸には「ラーメン納品部」と書かれたワッペン。

「お待たせしました、納期通りです」

配達員は、両手で大きな箱を差し出してきた。
中には、作りかけのカップ麺がぎっしり詰まっている。
すべて、お湯を入れてちょうど3分経った状態らしい。

「いや、もう作ってあるんで…」と言うと、配達員は一枚の書類を見せた。
『深夜即席麺契約書　第7条　3分後の納品義務』と書かれている。

「契約って…いつですか？」

配達員は少し困った顔で答えた。
「小学校3年生のとき、給食でラーメン食べましたよね？　あれです。」

結局、山本は一晩で14個のカップ麺を食べきった。
翌朝、食器棚を開けると、中はどんぶり麺でぎっしり埋まっていた。

そこには新しい書類が置かれていた。"
"6337447","control","4","166249","31000","output","2032","科学的なエビデンスとか、万人における再現性がどこまであるかはわからないんだけど、「身近なものを使って無料で楽しく遊んでいるうちに、自然に脳のワーキングメモリも鍛えられるなら最高じゃね？」という可能性について。

まず、用意するのは、ランダムな「4桁の数字」。個人的におすすめなのは、「現在時刻」とか「街中でパッと目に入った車のナンバープレート」とかかな。
これを「足す・引く・"
"6233409","control","15","535854","17000","output","1343","二匹の猫が並んで歩いていました。
オスの猫は黒色、メスの猫は白色をしています。
黒色のオス猫は白色のメス猫の事がとても好きです。

向かい側からオスのトラ猫が歩いてきました。
トラ猫は白色のメス猫をとても気に入ったようです。

黒猫とトラ猫は白猫をめぐってのライバル関係になりました。
二匹とも白猫に気に入られるように何かプレゼントをあげようと考えます。

黒猫は白猫のためにどこかからソーセージを探して持ってきました。
トラ猫は白猫のためにどこかから煮干しを探して持ってきました。

白猫はどちらを食べようか迷っています。

黒猫とトラ猫はじっと目を合わせてにらみ合いながら一歩もゆずらない気持ちです。

しばらくするといつの間にか白猫がいなくなっている事に気が付きました。
ソーセージと煮干しはそのまま残っています。

二匹は慌てて白猫を探しました。すると少し離れたところに白猫がいました。
よく見ると毛並みのいいオスのグレー"
"3283357","control","6","236742","41000","output","1400","1702年、カリブ海のトルトゥーガの島。海賊たちがたむろする酒場に、ボロボロの男が入店してくる。その男に声をかける赤いバンダナの男。「おい、あんた、どうした？　ここらじゃ見ない顔だな。」
ボロボロの男は答える。「オレは、ドラゴン海賊団のレイヴ。あ、あんたは？」
赤いバンダナの男は「オレはミゲルだ。ドラゴン海賊団って言ったら、スペイン船の私掠船の」"
"438363","control","8","315327","38000","output","1035","僕は川沿いをランニングするのが日課だった。サッカー部に入っているのだが、部活を終えた後も、足腰を鍛え、持久力を付けるために、一度家に帰った後も、こうしてランニングに励むのだった。ある日、何時ものように川沿いを走っていると突然、空が真っ黒な雲に覆われ、雷の音が響いてきた。大きな雨粒がポツポツと降ってきて、僕の顔に当たる。「雷雨だ」と慌てて、近くの大きな樹の下に雨宿りをした。雨は激しくなるばかりだった。雨具を持っていないため、このままここに止まるしかない。暗くなりしかいがわ"
"3585633","control","8","344026","43000","output","1216","私は、暗い夜道をひたすらに歩いていた。
ただまっすぐに、まっすぐに。
今が何時なのかは一切わからない。
極端に言えば、自分が誰なのかさえわかっていない。
ただただ、何かに追われているような気がして、焦っている。

何か心の中では、何とも言えない過去という恐怖から逃れているようにも感じる。
何分歩いたのだろう。私の前に"
"2752457","control","10","394447","19000","planning","1593","ある日、中国のとある農村部に未知のウイルスが蔓延し始める。そのウイルスに感染した者には、当初微熱が発症する。単なる風邪だろうとたかをくくっていると、その数日後に高熱・頭痛・悪寒・吐き気などの重症に発展していく。ついには吐血・目眩・意識混濁に陥り、最終的に絶命に至る。このウイルスの猛威の前に、中国国内の名だたる医学者たちも全くなすすべがなかった。新種のウイルスは農村部を起点に中国国内のあらゆる地域へ感染範囲を広げていく。そして"
"3124577","control","17","574711","29000","output","2632","太郎はお父さんとお母さんの3人家族でした。
あるとき太郎に弟ができることが判りました。
太郎はとても嬉しくて弟が生まれてくる日を楽しみにしていました。
そして3か月後、ついに弟が生まれました。
太郎は弟が可愛くて可愛くて仕方がありませんでした。
太郎は毎日毎日弟の世話をして大切に扱っていました。
ですが暫くするとお母さんもお父さんも弟ばかり構っていて自分を構ってもらえず不満を抱くようになりました。
あまりにも弟ばかり構っていて太郎は寂しくて仕方がありませんでした。
そこで太郎は思いつきます。
弟が死んでしまえばお母さんもお父さんも自分の方を向いてくれるのではと。
そこで太郎は弟を殺す計画を立てました。
弟はいつもお母さんのおっぱいを飲んでいたので、太郎はお母さんのおっぱいに毒を塗ることにしました。
お母さんが眠っていることを確認すると太郎はお母さんのおっぱいに毒を塗りました。
これで明日、弟がおっぱいを飲めば毒で死んでしまうだろうと期待していました。
翌朝、太郎が目を覚ますと何とそこにはお父さんの"
"4758400","control","5","186648","16000","revision","1553","都内の路上。
とある人気女優が、帰路へと着いていた。
そんな時、道端で弱った黒猫を見つける。
明日は休みということもあって、彼女は自宅に連れ帰って看病した。
その猫は見る見る元気になり、彼女は安堵して床に就いた。
翌朝、彼女が目覚めると、何と頭には猫の耳が、古紙には尻尾が付いていた"
"1966230","control","5","224319","40000","output","1541","A子は楽しみにしていた映画を観にショッピングモールへと車で向かっていた。いつもの道路は通勤ラッシュなのか渋滞しており、ｓｈ"
"1919427","control","6","261078","40000","planning","1559","てつのりは長すぎた髪を切ろうと考え、いつも通っている美容院に行くことにした。
道中髪型をどうしようかと考えていたが、どうにも考えまとまらず、頭の中は自然と今年の夏のことに。

猛暑日が続く中、おじいちゃんが死んだという報が届いたのは8月の中旬だった。
てつのりは幼少期から祖父祖母に預けられて、
"
"1533311","control","11","378865","30000","planning","782","おばあさんとおじいさんが川に洗濯に行きました。そこへ桃が流れてきましたが、二人とも見逃してしまいました。ある日、二人の元へ少年が現れました。少年は私は桃太郎だと自慢げに名乗りましたが、おじいさんとおばあさんは意味がわかりません。少年は二人に桃太郎の絵本を読んだことがないのかと尋ねました。二人は首を横に振りました。仕方なく少年は桃太郎という絵本を取り出しおじいさんとおばあさんに読み聞かせを始めました。すると二人はたいそう感激して"
"4960690","control","9","327539","24000","output","1303","右下腹部に痛みを感じていたが放置していた。
最初は筋肉痛だと思っており特に何も気にしていなかった。
ちょうど妻が健康診断の結果を踏まえて、大腸内視鏡検査を受けていた。
自分ももしかしてと思い、大腸の不調を疑い始めた。
すぐに消化器内科を受診した。
念のため、大腸内視鏡を受けましょうということで、三週間後に決まった。
その後不安を抱えながらも日常を過ごしていたが、痛みが強くなってきた。
どう考えても筋肉的な痛みのため、腹壁瘢痕ヘルニアを疑った。
エコーで確認が取れないか、近所にクリニックを受診した。
大きな病院でCTをやらないとわからないということで紹介状をもらって予約を済ませた。
その予約日が来る前に、痛みが強く危機感を感じて受診した。
予約日前だが検査でき、その日は結果はわからなかった。
"
"5398551","control","13","432239","26000","revision","1119","時代ははるか未来、AIが今より発展し、人間と区別がつかないほど進化し、独自の意識を持つほどになっている。それほどまでに進化した彼らには、人間の人権のような権利が認められ、人間と共存していた。
しかしAIは万能ではない。人間が時におかしくなり犯罪を犯すように、AIもまたその回路に変調をきたすことがあり、そうなった場合彼らは罪を犯してしまう。人間以上に強靭なキカイノカラダを持つ彼ら、その蛮行を止めるには、これまでの警察機構とは異なる、彼ら専用の強力な抑止となるものが必要になった。そうして設立されたのが、対AI警察機構カウンターAI、『CAI』である。"
"4983408","control","11","391574","37000","output","1603","街外れにある小さな村に、一人の女の子がいました。魔法が使える世界にあるこの村の女の子は、魔法の勉強を毎日しています。今使える魔法は回復魔法。優しい女の子は自分の回復魔法を今以上に勉強をしたいと日々生きています。

こんな女の子は突然怪我をした男の子に出会いました。
「大丈夫？怪我はない？」
と聞くと、
「大したことない。イテテ。ちょっと転んで擦りむいただけ。こんなのへっちゃらさ。」
と女の子に良いところを見せたい一心で返事をしました。
女の子は男の子の怪我を治したい一心で回復魔法を使いました。男の子は女の子の優しさを覚えて心が温かくなりました。

女の子は回復魔法を"
"6337447","control","5","189526","20000","output","719","科学的なエビデンスとか、万人における再現性がどこまであるかはわからないんだけど、「身近なものを使って無料で楽しく遊んでいるうちに、自然に脳のワーキングメモリも鍛えられるなら最高じゃね？」という可能性について。

まず、用意するのは、ランダムな「4桁の数字」。個人的におすすめなのは、「現在時刻」とか「街中でパッと目に入った車のナンバープレート」とかかな。
これを「足す・引く・掛ける・割る」ことで、最終的に「10」を作る"
"839571","control","7","283944","27000","planning","2564","ある日宇宙に小さな花が咲いていました。
その小さな花はいつか別の星に行きたいと願っていました。
なぜなら、その小さな花は意思を持っており自分が新天地に旅建つことを夢に見ていたからでした。

ですが、その小さな花は所詮花なのでそこから動くことができませんでした。なので、宇宙の旅行者が自分のところに来て一緒に連れて行って欲しいと願っていました。

それしか、その小さな花が新天地に行く手段はなかったからです。そして、ついにその小さな花は新天地に旅立つc"
"3922243","control","10","342777","31000","output","1665","　目が覚めると、真っ白い何もない部屋にいた。
　自分がどうしてここにいるのかもよくわからない。
　今まで自分が何をしていたのか思い出そうとするが、頭に靄がかかったように記憶がぼんやりとしていた。

　しばらく部屋でぼーっとしていたが、ふと気が付くと部屋の真ん中に小さなテーブルがあった。
　先ほどまでは無かったはずなのに、と不思議に思いながら近づくと、テーブルの上には一枚の紙があった。


　「どうして」


　赤い文字でそれだけが書かれていた。
　なにがどうしてなのだろう？そして誰がこれを書いたのだろう。
　様々な疑問が湧き上がってくる。と同時になんだか胸騒ぎもする。

　しばしの間、その紙を眺めていたが、ふと視線を上げると部屋の中に一つだけ扉が表れていた。
　何の変哲もない扉ではあったが、心の中ではなぜかその扉を開けてはいけないと強く警告されているような気がした。

　もう一度紙に視線を向ける。


　「どうして」


　"
"438363","control","9","338423","15000","output","796","僕は川沿いをランニングするのが日課だった。サッカー部に入っているのだが、部活を終えた後も、足腰を鍛え、持久力を付けるために、一度家に帰った後も、こうしてランニングに励むのだった。ある日、何時ものように川沿いを走っていると突然、空が真っ黒な雲に覆われ、雷の音が響いてきた。大きな雨粒がポツポツと降ってきて、僕の顔に当たる。「雷雨だ」と慌てて、近くの大きな樹の下に雨宿りをした。雨は激しくなるばかりだった。雨具を持っていないため、このままここに止まるしかない。暗くなり視界が悪くなるかわ"
"1274239","control","11","413015","32000","output","847","ある日の真夜中。僕はどうしてもお腹が空いて台所でカップ麺を作ろうとしていた。
お湯を注いでふたを閉じ、キッチンタイマーを3分にセット。
タイマーが「ピッ」と鳴った瞬間どこからともなくドアベルが鳴った。
こんな時間に誰だろうと思って玄関を開けると、作業服を着た配達員が立っていた。
胸には「ラーメン納品部」と書かれたワッペン。
「お待たせしました、納期通りです」
配達員は両手で大きな箱を差し出してきた。
中には作りかけのカップ麺がぎっしり詰まっている。
すべてお湯を入れてちょうど3分経った状態らしい。

「いや、もう作ってあるんで…」と言うと、配達員は一枚の書類を見せた。
『深夜即席麺契約書　第7条　3分後の納品義務』と書かれている。

「契約って…いつですか？」

配達員は少し困った顔で答えた。
「小学校3年生のとき、給食でラーメン食べましたよね？　あれです。」

結局、山本は一晩で14個のカップ麺を食べきった。
翌朝、食器棚を開けると、中はどんぶり麺でぎっしり埋まっていた。

そこには新しい書類が置かれていた。"
"6233409","control","16","568470","30000","output","1350","二匹の猫が並んで歩いていました。
オスの猫は黒色、メスの猫は白色をしています。
黒色のオス猫は白色のメス猫の事がとても好きです。

向かい側からオスのトラ猫が歩いてきました。
トラ猫は白色のメス猫をとても気に入ったようです。

黒猫とトラ猫は白猫をめぐってのライバル関係になりました。
二匹とも白猫に気に入られるように何かプレゼントをあげようと考えます。

黒猫は白猫のためにどこかからソーセージを探して持ってきました。
トラ猫は白猫のためにどこかから煮干しを探して持ってきました。

白猫はどちらを食べようか迷っています。

黒猫とトラ猫はじっと目を合わせてにらみ合いながら一歩もゆずらない気持ちです。

しばらくするといつの間にか白猫がいなくなっている事に気が付きました。
ソーセージと煮干しはそのまま残っています。

二匹は慌てて白猫を探しました。すると少し離れたところに白猫がいました。
よく見ると毛並みのいいオスのグレーの猫と一緒にいます。
そして、グレーの猫が持ってきた高級な肉をおいしそうｎ"
"3585633","control","9","373017","25000","output","1444","私は、暗い夜道をひたすらに歩いていた。
ただまっすぐに、まっすぐに。
今が何時なのかは一切わからない。
極端に言えば、自分が誰なのかさえわかっていない。
ただただ、何かに追われているような気がして、焦っている。

何か心の中では、何とも言えない過去という恐怖から逃れているようにも感じる。
何分歩いたのだろう。私の前に赤い明りのついた建物が見えてきた。
それ"
"3260097","control","14","503645","40000","output","1499","小さな子猫と独りぼっちで寂しい思いをしている少年が雨の中出会った。最初は全く子猫に興味がなかったが、自分と同じように一人でいる猫に親近感を覚え、いつしかこの子とずっと一緒にいたいと思うようになる。

そんなある日、少年はいたはずの猫の姿を見失ってしまう。とても不安になりそこらじゅうを探し回っていると、いつの間にか母猫を見つけて一緒にいられるようになっていた。

心から良かったと思う反面、何だか自分だけ取り残されたような気持ちになり、また一人ぼっちの孤独を味わっていたら、今度はその母猫が少年の近くまで来てじっと見つめた後、ぺこりと人間のようにお辞儀をして子猫と一緒にその場を後にしていった。

自分に感謝してくれたのかな？僕は何かの役に立てた？そう思ったら急に嬉しくなり、自分でも誰かの役に立ったりできるんだと思うようになり、それ以来少年は積極的に人と話すことができるようになり、自分に自信がついて前よりもどんどん明るくなっていった。

人はひょんなことからか"
"1919427","control","7","286381","21000","output","2354","てつのりは長すぎた髪を切ろうと考え、いつも通っている美容院に行くことにした。
道中髪型をどうしようかと考えていたが、どうにも考えまとまらず、頭の中は自然と今年の夏のことに。

猛暑日が続く中、おじいちゃんが死んだという報が届いたのは8月の中旬だった。
てつのりは幼少期から祖父祖母のもに預けられて、それから高校を卒業するまでは
"
"3710758","control","10","386920","45000","revision","654","私はいま、北海道に旅行に来ています。
この旅行の目的はおいしいものをたくさん食べることです。
海に面していない県に住んでいるので、おいしい海鮮をおなか一杯に食べたいと、一年近く計画をしていました。
やっぱり北海道と言えばカニですね！
あとはホタテとか雲丹とかお寿司が食べたいです。
あと、北海道は牛乳がおいしそうなイメージがあるので、生クリームを使ったスイーツやソフトクリームを食べ歩きしたいです。
旅行の日程が2泊3日なので食べ歩くのにも限界がありますが、できる限り北海道の食を満喫して帰りたいと思います。
という見知らぬ人のSNS投稿を見て、自分も北海道へ行きたくなりました。
最近は旅費がどんどん高くなってきているので、ぜひドラえもんにどこでもドアをお借りして、ドアを開けたら北海道であってほしいです。"
"6337447","control","6","213066","19000","planning","793","科学的なエビデンスとか、万人における再現性がどこまであるかはわからないんだけど、「身近なものを使って無料で楽しく遊んでいるうちに、自然に脳のワーキングメモリも鍛えられるなら最高じゃね？」という可能性について。

まず、用意するのは、ランダムな「4桁の数字」。個人的におすすめなのは、「現在時刻」とか「街中でパッと目に入った車のナンバープレート」とかかな。
これを「足す・引く・掛ける・割る」ことで、最終的に「10」を作る、という遊び。数字を使う順番は、任意で考えても"
"3283357","control","7","280703","39000","output","1155","1702年、カリブ海のトルトゥーガの島。海賊たちがたむろする酒場に、ボロボロの男が入店してくる。その男に声をかける赤いバンダナの男。「おい、あんた、どうした？　ここらじゃ見ない顔だな。」
ボロボロの男は答える。「オレは、ドラゴン海賊団のレイヴ。あ、あんたは？」
赤いバンダナの男は「オレはミゲルだ。ドラゴン海賊団って言ったら、スペイン船の私掠船の連中だろ？そんな奴がここにいたら、他の海賊たちに殺されちまうぞ。」
レイヴは"
"3922243","control","11","364779","20000","output","789","　目が覚めると、真っ白い何もない部屋にいた。
　自分がどうしてここにいるのかもよくわからない。
　今まで自分が何をしていたのか思い出そうとするが、頭に靄がかかったように記憶がぼんやりとしていた。

　しばらく部屋でぼーっとしていたが、ふと気が付くと部屋の真ん中に小さなテーブルがあった。
　先ほどまでは無かったはずなのに、と不思議に思いながら近づくと、テーブルの上には一枚の紙があった。


　「どうして」


　赤い文字でそれだけが書かれていた。
　なにがどうしてなのだろう？そして誰がこれを書いたのだろう。
　様々な疑問が湧き上がってくる。と同時になんだか胸騒ぎもする。

　しばしの間、その紙を眺めていたが、ふと視線を上げると部屋の中に一つだけ扉が表れていた。
　何の変哲もない扉ではあったが、心の中ではなぜかその扉を開けてはいけないと強く警告されているような気がした。

　もう一度紙に視線を向ける。


　「どうして」


　赤くか細い字で書かれている。
　どうして。
　この字を見ると"
"2752457","control","11","430651","33000","planning","1050","ある日、日本のとある農村部に未知のウイルスが蔓延し始める。そのウイルスに感染した者には、当初微熱が発症する。単なる風邪だろうとたかをくくっていると、その数日後に高熱・頭痛・悪寒・吐き気などの重症に発展していく。ついには吐血・目眩・意識混濁に陥り、最終的に絶命に至る。このウイルスの猛威の前に、日本国内の名だたる医学者たちも全くなすすべがなかった。新種のウイルスは農村部を起点に中国国内のあらゆる地域へ感染範囲を広げていく。事態を懸念した政府は"
"438363","control","10","362263","20000","revision","889","僕は川沿いをランニングするのが日課だった。サッカー部に入っているのだが、部活を終えた後も、足腰を鍛え、持久力を付けるために、一度家に帰った後も、こうしてランニングに励むのだった。ある日、何時ものように川沿いを走っていると突然、空が真っ黒な雲に覆われ、雷の音が響いてきた。大きな雨粒がポツポツと降ってきて、僕の顔に当たる。「雷雨だ」と慌てて、近くの大きな樹の下に雨宿りをした。雨は激しくなるばかりだった。雨具を持っていないため、このままここに止まるしかない。暗くなり視界が悪くなるか"
"5398551","control","14","466237","31000","planning","1140","時代ははるか未来、AIが今より発展し、ロボットとして、人間と区別がつかないほど進化し、独自の意識を持つほどになっている。それほどまでに進化した彼らには、人間の人権のような権利が認められ、人間と共存していた。
しかしAIは万能ではない。人間が時におかしくなり犯罪を犯すように、AIもまたその回路に変調をきたすことがあり、そうなった場合彼らは罪を犯してしまう。人間以上に強靭な機械の体を持つ彼ら、その蛮行を止めるには、これまでの警察機構とは異なる、彼ら専用の強力な抑止となるものが必要になった。そうして設立されたのが、対AI警察機構カウンターAI、『CAI』である。この物語は"
"1533311","control","12","418487","36000","planning","910","おばあさんとおじいさんが川に洗濯に行きました。そこへ桃が流れてきましたが、二人とも見逃してしまいました。ある日、二人の元へ少年が現れました。少年は私は桃太郎だと自慢げに名乗りましたが、おじいさんとおばあさんは意味がわかりません。少年は二人に桃太郎の絵本を読んだことがないのかと尋ねました。二人は首を横に振りました。仕方なく少年は桃太郎という絵本を取り出しおじいさんとおばあさんに読み聞かせを始めました。すると二人はたいそう感激して諸雲"
"4758400","control","6","231964","42000","output","1375","都内の路上。
とある人気女優が、帰路へと着いていた。
そんな時、道端で弱った黒猫を見つける。
明日は休みということもあって、彼女は自宅に連れ帰って看病した。
その猫は見る見る元気になり、彼女は安堵して床に就いた。
翌朝、彼女が目覚めると、何と頭には猫の耳が、腰には尻尾が付いていた。
すると、昨日助けた黒猫が、元気に人間の言葉を使って説明をする。
何と、助けてくれた恩返しとして、"
"839571","control","8","317868","30000","output","1642","ある日宇宙に小さな花が咲いていました。
その小さな花はいつか別の星に行きたいと願っていました。
なぜなら、その小さな花は意思を持っており自分が新天地に旅建つことを夢に見ていたからでした。

ですが、その小さな花は所詮花なのでそこから動くことができませんでした。なので、宇宙の旅行者が自分のところに来て一緒に連れて行って欲しいと願っていました。

それしか、その小さな花が新天地に行く手段はなかったからです。そして、ついにその小さな花は新天地に旅立つチャンスがやってきました。

なぜなら、ついに宇宙の旅行者が自分のところに来てくれて"
"4960690","control","10","370975","41000","output","1071","右下腹部に痛みを感じていたが放置していた。
最初は筋肉痛だと思っており特に何も気にしていなかった。
ちょうど妻が健康診断の結果を踏まえて、大腸内視鏡検査を受けていた。
自分ももしかしてと思い、大腸の不調を疑い始めた。
すぐに消化器内科を受診した。
念のため、大腸内視鏡を受けましょうということで、三週間後に決まった。
その後不安を抱えながらも日常を過ごしていたが、痛みが強くなってきた。
どう考えても筋肉的な痛みのため、腹壁瘢痕ヘルニアを疑った。
エコーで確認が取れないか、近所にクリニックを受診した。
大きな病院でCTをやらないとわからないということで紹介状をもらって予約を済ませた。
その予約日が来る前に、痛みが強く危機感を感じて受診した。
予約日前だが検査でき、その日は結果はわからなかった。
一週間後、MRIの結果が出て、原因が判明した。
腹斜筋断裂だった。
ホットしたが、３日後に大腸内視鏡検査を控えている。
原因はｗ"
"3260097","control","15","528013","20000","output","2583","小さな子猫と独りぼっちで寂しい思いをしている少年が雨の中出会った。最初は全く子猫に興味がなかったが、自分と同じように一人でいる猫に親近感を覚え、いつしかこの子とずっと一緒にいたいと思うようになる。

そんなある日、少年はいたはずの猫の姿を見失ってしまう。とても不安になりそこらじゅうを探し回っていると、いつの間にか母猫を見つけて一緒にいられるようになっていた。

心から良かったと思う反面、何だか自分だけ取り残されたような気持ちになり、また一人ぼっちの孤独を味わっていたら、今度はその母猫が少年の近くまで来てじっと見つめた後、ぺこりと人間のようにお辞儀をして子猫と一緒にその場を後にしていった。

自分に感謝してくれたのかな？僕は何かの役に立てた？そう思ったら急に嬉しくなり、自分でも誰かの役に立ったりできるんだと思うようになり、それ以来少年は積極的に人と話すことができるようになり、自分に自信がついて前よりもどんどん明るくなっていった。

人はひょんなことからか変わるきっかけを見つけることができ、それは人生の4ｔ"
"1966230","control","6","272279","45000","output","1210","A子は楽しみにしていた映画を観にショッピングモールへと車で向かっていた。いつもの道路は通勤ラッシュなのか渋滞しており、ショッピングモールまではあと少しなのに一向に車が動かない状態が続いた。
時計を見ても開場時間の10分前が迫っていた。くるま"
"4983408","control","12","435941","41000","output","1451","街外れにある小さな村に、一人の女の子がいました。魔法が使える世界にあるこの村の女の子は、魔法の勉強を毎日しています。今使える魔法は回復魔法。優しい女の子は自分の回復魔法を今以上に勉強をしたいと日々生きています。

こんな女の子は突然怪我をした男の子に出会いました。
「大丈夫？怪我はない？」
と聞くと、
「大したことない。イテテ。ちょっと転んで擦りむいただけ。こんなのへっちゃらさ。」
と女の子に良いところを見せたい一心で返事をしました。
女の子は男の子の怪我を治したい一心で回復魔法を使いました。男の子は女の子の優しさを覚えて心が温かくなりました。

女の子は回復魔法をもっと習得したい気持ちで、その後も魔法の勉強に専念しました。回復魔法の良さを知ってから"
"3283357","control","8","299574","16000","planning","1278","1702年、カリブ海のトルトゥーガの島。海賊たちがたむろする酒場に、ボロボロの男が入店してくる。その男に声をかける赤いバンダナの男。「おい、あんた、どうした？　ここらじゃ見ない顔だな。」
ボロボロの男は答える。「オレは、ドラゴン海賊団のレイヴ。あ、あんたは？」
赤いバンダナの男は「オレはミゲルだ。ドラゴン海賊団って言ったら、スペイン船の私掠船の連中だろ？そんな奴がここにいたら、他の海賊たちに殺されちまうぞ。」
レイヴは、"
"1274239","control","12","447544","32000","output","839","ある日の真夜中。僕はどうしてもお腹が空いて台所でカップ麺を作ろうとしていた。
お湯を注いでふたを閉じ、キッチンタイマーを3分にセット。

タイマーが「ピッ」と鳴った瞬間どこからともなくドアベルが鳴った。

こんな時間に誰だろうと思って玄関を開けると、作業服を着た配達員が立っていた。

胸には「ラーメン納品部」と書かれたワッペン。

「お待たせしました、納期通りです」

配達員は両手で大きな箱を差し出してきた。

中には作りかけのカップ麺がぎっしり詰まっているて、すべてお湯を入れてちょうど3分経った状態らしい。

「いや、もう作ってあるんで…」と言うと、配達員は一枚の書類を見せた。

『深夜即席麺契約書　第7条　3分後の納品義務』と書かれている。

「契約って…いつですか？」

配達員は少し困った顔で答えた。
「小学校3年生のとき、給食でラーメン食べましたよね？　あれです。」

結局、山本は一晩で14個のカップ麺を食べきった。
翌朝、食器棚を開けると、中はどんぶり麺でぎっしり埋まっていた。

そこには新しい書類が置かれていた。"
"3585633","control","10","410847","33000","planning","1704","私は、暗い夜道をひたすらに歩いていた。
ただまっすぐに、まっすぐに。
今が何時なのかは一切わからない。
極端に言えば、自分が誰なのかさえわかっていない。
ただただ、何かに追われているような気がして、焦っている。

何か心の中では、何とも言えない過去という恐怖から逃れているようにも感じる。
何分歩いたのだろう。私の前に赤い明りのついた建物が見えてきた。
それはとても不気味で、地獄の入り口"
"6233409","control","17","611453","39000","planning","1927","二匹の猫が並んで歩いていました。
オスの猫は黒色、メスの猫は白色をしています。
黒色のオス猫は白色のメス猫の事がとても好きです。

向かい側からオスのトラ猫が歩いてきました。
トラ猫は白色のメス猫をとても気に入ったようです。

黒猫とトラ猫は白猫をめぐってのライバル関係になりました。
二匹とも白猫に気に入られるように何かプレゼントをあげようと考えます。

黒猫は白猫のためにどこかからソーセージを探して持ってきました。
トラ猫は白猫のためにどこかから煮干しを探して持ってきました。

白猫はどちらを食べようか迷っています。

黒猫とトラ猫はじっと目を合わせてにらみ合いながら一歩もゆずらない気持ちです。

しばらくするといつの間にか白猫がいなくなっている事に気が付きました。
ソーセージと煮干しはそのまま残っています。

二匹は慌てて白猫を探しました。すると少し離れたところに白猫がいました。
よく見ると毛並みのいいオスのグレーの猫と一緒にいます。
そして、グレーの猫が持ってきた高級な肉をおいしそうに食べていました。

黒猫とトラ猫はがっかりしてお互い目を合わせ、"
"5398551","control","15","491099","22000","revision","922","時代ははるか未来、AIが今より発展し、ロボットとして、人間と区別がつかないほど進化し、独自の意識を持つほどになっている。それほどまでに進化した彼らには、人間の人権のような権利が認められ、人間と共存していた。
しかしAIは万能ではない。人間が時におかしくなり犯罪を犯すように、AIもまたその回路に変調をきたすことがあり、そうなった場合彼らは罪を犯してしまう。人間以上に強靭な機械の体を持つ彼ら、その蛮行を止めるには、これまでの警察機構とは異なる、彼ら専用の強力な抑止となるものが必要になった。そうして設立されたのが、対AI警察機構カウンターAI、『CAI』である。この物語はCAIに所属することとなった新人AIろ"
"4758400","control","7","250252","15000","output","1490","都内の路上。
とある人気女優が、帰路へと着いていた。
そんな時、道端で弱った黒猫を見つける。
明日は休みということもあって、彼女は自宅に連れ帰って看病した。
その猫は見る見る元気になり、彼女は安堵して床に就いた。
翌朝、彼女が目覚めると、何と頭には猫の耳が、腰には尻尾が付いていた。
すると、昨日助けた黒猫が、元気に人間の言葉を使って説明をする。
何と、助けてくれた恩返しとして、彼女がかつて猫になりたいと"
"3710758","control","11","421680","31000","planning","1120","私はいま、北海道に旅行に来ています。
この旅行の目的はおいしいものをたくさん食べることです。
海に面していない県に住んでいるので、おいしい海鮮をおなか一杯に食べたいと、一年近く計画をしていました。
やっぱり北海道と言えばカニですね！
あとはホタテとか雲丹とかお寿司が食べたいです。
あと、北海道は牛乳がおいしそうなイメージがあるので、生クリームを使ったスイーツやソフトクリームを食べ歩きしたいです。
旅行の日程が2泊3日なので食べ歩くのにも限界がありますが、できる限り北海道の食を満喫して帰りたいと思います。
という見知らぬ人のSNS投稿を見て、自分も北海道へ行きたくなりました。
最近は旅費がどんどん高くなってきているので、ぜひドラえもんにどこでもドアをお借りして、ドアを開けたら北海道であってほしいです。"
"3260097","control","16","547690","16000","output","2171","小さな子猫と独りぼっちで寂しい思いをしている少年が雨の中出会った。最初は全く子猫に興味がなかったが、自分と同じように一人でいる猫に親近感を覚え、いつしかこの子とずっと一緒にいたいと思うようになる。

そんなある日、少年はいたはずの猫の姿を見失ってしまう。とても不安になりそこらじゅうを探し回っていると、いつの間にか母猫を見つけて一緒にいられるようになっていた。

心から良かったと思う反面、何だか自分だけ取り残されたような気持ちになり、また一人ぼっちの孤独を味わっていたら、今度はその母猫が少年の近くまで来てじっと見つめた後、ぺこりと人間のようにお辞儀をして子猫と一緒にその場を後にしていった。

自分に感謝してくれたのかな？僕は何かの役に立てた？そう思ったら急に嬉しくなり、自分でも誰かの役に立ったりできるんだと思うようになり、それ以来少年は積極的に人と話すことができるようになり、自分に自信がついて前よりもどんどん明るくなっていった。

人はひょんなことからか変わるきっかけを見つけることができ、それは人生のターニングポイントになることがある。

そんなきょ"
"839571","control","9","343179","20000","planning","2933","ある日宇宙に小さな花が咲いていました。
その小さな花はいつか別の星に行きたいと願っていました。
なぜなら、その小さな花は意思を持っており自分が新天地に旅建つことを夢に見ていたからでした。

ですが、その小さな花は所詮花なのでそこから動くことができませんでした。なので、宇宙の旅行者が自分のところに来て一緒に連れて行って欲しいと願っていました。

それしか、その小さな花が新天地に行く手段はなかったからです。そして、ついにその小さな花は新天地に旅立つチャンスがやってきました。

なぜなら、ついに宇宙の旅行者が自分のところに来てくれて自分を一緒に連れて行って欲しいと伝えることが"
"3922243","control","12","401817","35000","output","789","　目が覚めると、真っ白い何もない部屋にいた。
　自分がどうしてここにいるのかもよくわからない。
　今まで自分が何をしていたのか思い出そうとするが、頭に靄がかかったように記憶がぼんやりとしていた。

　しばらく部屋でぼーっとしていたが、ふと気が付くと部屋の真ん中に小さなテーブルがあった。
　先ほどまでは無かったはずなのに、と不思議に思いながら近づくと、テーブルの上には一枚の紙があった。


　「どうして」


　赤い文字でそれだけが書かれていた。
　なにがどうしてなのだろう？そして誰がこれを書いたのだろう。
　様々な疑問が湧き上がってくる。と同時になんだか胸騒ぎもする。

　しばしの間、その紙を眺めていたが、ふと視線を上げると部屋の中に一つだけ扉が表れていた。
　何の変哲もない扉ではあったが、心の中ではなぜかその扉を開けてはいけないと強く警告されているような気がした。

　もう一度紙に視線を向ける。


　「どうして」


　赤くか細い字で書かれている。
　どうして。
　この字を見るととても胸がざわつく。

　しかしそうしていても部屋には何も変化はなく、一つため息をつくと、"
"2172518","control","0","39687","35000","planning","1318",
"1966230","control","7","296655","21000","output","1534","A子は楽しみにしていた映画を観にショッピングモールへと車で向かっていた。いつもの道路は通勤ラッシュなのか渋滞しており、ショッピングモールまではあと少しなのに一向に車が動かない状態が続いた。
時計を見ても開場時間の10分前が迫っていた。ようやく車がうご"
"1919427","control","8","332916","43000","planning","1712","てつのりは長すぎた髪を切ろうと考え、いつも通っている美容院に行くことにした。
道中髪型をどうしようかと考えていたが、どうにも考えまとまらず、頭の中は自然と今年の夏のことに。

猛暑日が続く中、おじいちゃんが死んだという報が届いたのは8月の中旬だった。
てつのりは幼少期から祖父祖母のもとに預けられて、それから高校を卒業するまではずっと彼らと一緒にいたのだ。

"
"4960690","control","11","398522","25000","output","1067","右下腹部に痛みを感じていたが放置していた。
最初は筋肉痛だと思っており特に何も気にしていなかった。
ちょうど妻が健康診断の結果を踏まえて、大腸内視鏡検査を受けていた。
自分ももしかしてと思い、大腸の不調を疑い始めた。
すぐに消化器内科を受診した。
念のため、大腸内視鏡を受けましょうということで、三週間後に決まった。
その後不安を抱えながらも日常を過ごしていたが、痛みが強くなってきた。
どう考えても筋肉的な痛みのため、腹壁瘢痕ヘルニアを疑った。
エコーで確認が取れないか、近所にクリニックを受診した。
大きな病院でCTをやらないとわからないということで紹介状をもらって予約を済ませた。
その予約日が来る前に、痛みが強く危機感を感じて受診した。
予約日前だが検査でき、その日は結果はわからなかった。
一週間後、MRIの結果が出て、原因が判明した。
腹斜筋断裂だった。
ホットしたが、３日後に大腸内視鏡検査を控えている。
原因は判明したからキャンセルするか悩んだ。
だが、せっかくだからと思い、気軽"
"438363","control","11","399782","31000","revision","1149","僕は川沿いをランニングするのが日課だった。サッカー部に入っているのだが、部活を終えた後も、足腰を鍛え、持久力を付けるために、一度家に帰った後も、こうしてランニングに励むのだった。ある日、何時ものように川沿いを走っていると突然、空が真っ黒な雲に覆われ、雷の音が響いてきた。大きな雨粒がポツポツと降ってきて、僕の顔に当たる。「雷雨だ」と慌てて、近くの大きな樹の下に雨宿りをした。雨は激しくなるばかりだった。雨具を持っていないため、このままここに止まるしかない。暗くなり視界が悪くなっていく川の景色を眺めながら、ため息をついた。川のみずｋ"
"2752457","control","12","474641","41000","planning","1402","ある日、日本のとある農村部に未知のウイルスが蔓延し始める。そのウイルスに感染した者には、当初微熱が発症する。単なる風邪だろうとたかをくくっていると、その数日後に高熱・頭痛・悪寒・吐き気などの重症に発展していく。ついには吐血・目眩・意識混濁に陥り、最終的に絶命に至る。このウイルスの猛威の前に、日本国内の名だたる医学者たちも全くなすすべがなかった。新種のウイルスは農村部を起点に日本国内のあらゆる地域へ感染範囲を広げていく。事態を重く見た政府はウイルス感染者を隔離するため、閉鎖した。"
"1274239","control","13","475720","26000","revision","1256","ある日の真夜中。僕はどうしてもお腹が空いて台所でカップ麺を作ろうとしていた。
お湯を注いでふたを閉じ、キッチンタイマーを3分にセット。

タイマーが「ピッ」と鳴った瞬間どこからともなくドアベルが鳴った。

こんな時間に誰だろうと思って玄関を開けると、作業服を着た配達員が立っていた。

胸には「ラーメン納品部」と書かれたワッペン。

「お待たせしました、納期通りです」

配達員は両手で大きな箱を差し出してきた。

中には作りかけのカップ麺がぎっしり詰まっているて、すべてお湯を入れてちょうど3分経った状態らしい。

「いや、もう作ってあるんで…」と言うと、配達員は一枚の書類を見せた。

『深夜即席麺契約書　第7条　3分後の納品義務』と書かれている。

「契約って…いつですか？」

配達員は少し困った顔で答えた。

「小学校3年生のとき、給食でラーメン食べましたよね？　あれです。」

結局、山本は一晩で14個のカップ麺を食べきった。

翌朝、食器棚を開けると、中はどんぶり麺でぎっしり埋まっていた。

そこには新しい書類が置かれていた。"
"3283357","control","9","329238","26000","planning","1644","1702年、カリブ海のトルトゥーガの島。海賊たちがたむろする酒場に、ボロボロの男が入店してくる。その男に声をかける赤いバンダナの男。「おい、あんた、どうした？　ここらじゃ見ない顔だな。」
ボロボロの男は答える。「オレは、ドラゴン海賊団のレイヴ。あ、あんたは？」
赤いバンダナの男は「オレはミゲルだ。ドラゴン海賊団って言ったら、スペイン船の私掠船の連中だろ？そんな奴がここにいたら、他の海賊たちに殺されちまうぞ。」
「お、オレは確かにスペインこうにんの」"
"6337447","control","7","263026","45000","planning","1380","科学的なエビデンスとか、万人における再現性がどこまであるかはわからないんだけど、「身近なものを使って無料で楽しく遊んでいるうちに、自然に脳のワーキングメモリも鍛えられるなら最高じゃね？」という可能性について。

まず、用意するのは、ランダムな「4桁の数字」。個人的におすすめなのは、「現在時刻」とか「街中でパッと目に入った車のナンバープレート」とかかな。
これを「足す・引く・掛ける・割る」ことで、最終的に「10」を作る、という遊び。数字を使う順番は、任意で考えてもOK。

例えば1546だったら（）"
"1533311","control","13","459624","38000","planning","849","おばあさんとおじいさんが川に洗濯に行きました。そこへ桃が流れてきましたが、二人とも見逃してしまいました。ある日、二人の元へ少年が現れました。少年は私は桃太郎だと自慢げに名乗りましたが、おじいさんとおばあさんは意味がわかりません。少年は二人に桃太郎の絵本を読んだことがないのかと尋ねました。二人は首を横に振りました。仕方なく少年は桃太郎という絵本を取り出しおじいさんとおばあさんに読み聞かせを始めました。すると二人はたいそう感激して少年にお礼を言いました。"
"4983408","control","13","469839","31000","output","1097","街外れにある小さな村に、一人の女の子がいました。魔法が使える世界にあるこの村の女の子は、魔法の勉強を毎日しています。今使える魔法は回復魔法。優しい女の子は自分の回復魔法を今以上に勉強をしたいと日々生きています。

こんな女の子は突然怪我をした男の子に出会いました。
「大丈夫？怪我はない？」
と聞くと、
「大したことない。イテテ。ちょっと転んで擦りむいただけ。こんなのへっちゃらさ。」
と女の子に良いところを見せたい一心で返事をしました。
女の子は男の子の怪我を治したい一心で回復魔法を使いました。男の子は女の子の優しさを覚えて心が温かくなりました。

女の子は回復魔法をもっと習得したい気持ちで、その後も魔法の勉強に専念しました。治癒魔法だけではなく、ステータス状態を維持すｒ"
"4758400","control","8","278180","24000","output","1785","都内の路上。
とある人気女優が、帰路へと着いていた。
そんな時、道端で弱った黒猫を見つける。
明日は休みということもあって、彼女は自宅に連れ帰って看病した。
その猫は見る見る元気になり、彼女は安堵して床に就いた。
翌朝、彼女が目覚めると、何と頭には猫の耳が、腰には尻尾が付いていた。
すると、昨日助けた黒猫が、元気に人間の言葉を使って説明をする。
何と、助けてくれた恩返しとして、彼女がかつて猫になりたいと雑誌では発言していたことを真に受け、猫に変身させたのだ。
こ"
"3922243","control","13","422845","19000","planning","1288","　目が覚めると、真っ白い何もない部屋にいた。
　自分がどうしてここにいるのかもよくわからない。
　今まで自分が何をしていたのか思い出そうとするが、頭に靄がかかったように記憶がぼんやりとしていた。

　しばらく部屋でぼーっとしていたが、ふと気が付くと部屋の真ん中に小さなテーブルがあった。
　先ほどまでは無かったはずなのに、と不思議に思いながら近づくと、テーブルの上には一枚の紙があった。


　「どうして」


　赤い文字でそれだけが書かれていた。
　なにがどうしてなのだろう？そして誰がこれを書いたのだろう。
　様々な疑問が湧き上がってくる。と同時になんだか胸騒ぎもする。

　しばしの間、その紙を眺めていたが、ふと視線を上げると部屋の中に一つだけ扉が表れていた。
　何の変哲もない扉ではあったが、心の中ではなぜかその扉を開けてはいけないと強く警告されているような気がした。

　もう一度紙に視線を向ける。


　「どうして」


　赤くか細い字で書かれている。
　どうして。
　この字を見るととても胸がざわつく。

　しかしそうしていても部屋には何も変化はなく、一つため息をつくと、覚悟を決めて扉を開けてみることにした。


　"
"2172518","control","1","65519","23000","planning","684",
"438363","control","12","423382","16000","output","960","僕は川沿いをランニングするのが日課だった。サッカー部に入っているのだが、部活を終えた後も、足腰を鍛え、持久力を付けるために、一度家に帰った後も、こうしてランニングに励むのだった。ある日、何時ものように川沿いを走っていると突然、空が真っ黒な雲に覆われ、雷の音が響いてきた。大きな雨粒がポツポツと降ってきて、僕の顔に当たる。「雷雨だ」と慌てて、近くの大きな樹の下に雨宿りをした。雨は激しくなるばかりだった。雨具を持っていないため、このままここに止まるしかない。暗くなり視界が悪くなっていく川の景色を眺めながら、ため息をついた。川の水かさはみるみる増していく。そのとｋ"
"839571","control","10","371530","24000","output","2395","ある日宇宙に小さな花が咲いていました。
その小さな花はいつか別の星に行きたいと願っていました。
なぜなら、その小さな花は意思を持っており自分が新天地に旅建つことを夢に見ていたからでした。

ですが、その小さな花は所詮花なのでそこから動くことができませんでした。なので、宇宙の旅行者が自分のところに来て一緒に連れて行って欲しいと願っていました。

それしか、その小さな花が新天地に行く手段はなかったからです。そして、ついにその小さな花は新天地に旅立つチャンスがやってきました。

なぜなら、ついに宇宙の旅行者が自分のところに来てくれて自分を一緒に連れて行って欲しいと伝えることができるチャンスが来たからです。

そして、その小さな花は"
"6233409","control","18","650709","37000","output","1400","二匹の猫が並んで歩いていました。
オスの猫は黒色、メスの猫は白色をしています。
黒色のオス猫は白色のメス猫の事がとても好きです。

向かい側からオスのトラ猫が歩いてきました。
トラ猫は白色のメス猫をとても気に入ったようです。

黒猫とトラ猫は白猫をめぐってのライバル関係になりました。
二匹とも白猫に気に入られるように何かプレゼントをあげようと考えます。

黒猫は白猫のためにどこかからソーセージを探して持ってきました。
トラ猫は白猫のためにどこかから煮干しを探して持ってきました。

白猫はどちらを食べようか迷っています。

黒猫とトラ猫はじっと目を合わせてにらみ合いながら一歩もゆずらない気持ちです。

しばらくするといつの間にか白猫がいなくなっている事に気が付きました。
ソーセージと煮干しはそのまま残っています。

二匹は慌てて白猫を探しました。すると少し離れたところに白猫がいました。
よく見ると毛並みのいいオスのグレーの猫と一緒にいます。
そして、グレーの猫が持ってきた高級な肉をおいしそうに食べていました。

黒猫とトラ猫はがっかりしてお互い目を合わせ、仕方なく仲良くソーセージと煮干しを分け合って食べました。

その後黒猫とトラ猫はとても仲のいいｄ"
"3585633","control","11","456656","39000","planning","1095","私は、暗い夜道をひたすらに歩いていた。
ただまっすぐに、まっすぐに。
今が何時なのかは一切わからない。
極端に言えば、自分が誰なのかさえわかっていない。
ただただ、何かに追われているような気がして、焦っている。

何か心の中では、何とも言えない過去という恐怖から逃れているようにも感じる。
何分歩いたのだろう。私の前に赤い明りのついた建物が見えてきた。
それはとても不気味で、地獄の入り口のようにも感じた。
しかし、私の意思とは相反して、"
"1966230","control","8","329789","30000","output","1390","A子は楽しみにしていた映画を観にショッピングモールへと車で向かっていた。いつもの道路は通勤ラッシュなのか渋滞しており、ショッピングモールまではあと少しなのに一向に車が動かない状態が続いた。
時計を見ても開場時間の10分前が迫っていた。ようやく車が動き出してショッピングモールに着いたのは上映開始の2分前だった。
すぐに"
"1274239","control","14","500832","23000","revision","1376","ある日の真夜中。僕どうしてもお腹が空いて台所でカップ麺を作ろうとしていた。
お湯を注いでふたを閉じ、キッチンタイマーを3分にセット。

タイマーが「ピッ」と鳴った瞬間どこからともなくドアベルが鳴った。

こんな時間に誰だろうと思って玄関を開けると、作業服を着た配達員が立っていた。

胸には「ラーメン納品部」と書かれたワッペン。

「お待たせしました、納期通りです」

配達員は両手で大きな箱を差し出してきた。

中には作りかけのカップ麺がぎっしり詰まっているて、すべてお湯を入れてちょうど3分経った状態らしい。

「いや、もう作ってあるんで…」と言うと、配達員は一枚の書類を見せた。

『深夜即席麺契約書　第7条　3分後の納品義務』と書かれている。

「契約って…いつですか？」

配達員は少し困った顔で答えた。

「小学校3年生のとき、給食でラーメン食べましたよね？　あれです。」

結局、山本は一晩で14個のカップ麺を食べきった。

翌朝、食器棚を開けると、中はどんぶり麺でぎっしり埋まっていた。

そこには新しい書類が置かれていた。

『次回納期：明日3分後』"
"5398551","control","16","535169","41000","planning","1182","時代ははるか未来、AIが今より発展し、ロボットとして、人間と区別がつかないほど進化し、独自の意識を持つほどになっている。それほどまでに進化した彼らには、人間の人権のような権利が認められ、人間と共存していた。
しかしAIは万能ではない。人間が時におかしくなり犯罪を犯すように、AIもまたその回路に変調をきたすことがあり、そうなった場合彼らは罪を犯してしまう。人間以上に強靭な機械の体を持つ彼ら、その蛮行を止めるには、これまでの警察機構とは異なる、彼ら専用の強力な抑止となるものが必要になった。そうして設立されたのが、対AI警察機構カウンターAI、『CAI』である。この物語はCAIに所属することとなった新人AIロボットである『ジャック』の"
"4983408","control","14","491589","19000","output","1737","街外れにある小さな村に、一人の女の子がいました。魔法が使える世界にあるこの村の女の子は、魔法の勉強を毎日しています。今使える魔法は回復魔法。優しい女の子は自分の回復魔法を今以上に勉強をしたいと日々生きています。

こんな女の子は突然怪我をした男の子に出会いました。
「大丈夫？怪我はない？」
と聞くと、
「大したことない。イテテ。ちょっと転んで擦りむいただけ。こんなのへっちゃらさ。」
と女の子に良いところを見せたい一心で返事をしました。
女の子は男の子の怪我を治したい一心で回復魔法を使いました。男の子は女の子の優しさを覚えて心が温かくなりました。

女の子は回復魔法をもっと習得したい気持ちで、その後も魔法の勉強に専念しました。今では治癒魔法だけではなく、ステータス状態を維持する魔法も習得し始めています。"
"2752457","control","13","506525","29000","planning","1106","ある日、日本のとある農村部に未知のウイルスが蔓延し始める。そのウイルスに感染した者には、当初微熱が発症する。単なる風邪だろうとたかをくくっていると、その数日後に高熱・頭痛・悪寒・吐き気などの重症に発展していく。ついには吐血・目眩・意識混濁に陥り、最終的に絶命に至る。このウイルスの猛威の前に、日本国内の名だたる医学者たちも全くなすすべがなかった。新種のウイルスは農村部を起点に日本国内のあらゆる地域へ感染範囲を広げていく。事態を重く見た政府はウイルス感染者を隔離するため、一人でも感染者が見つかった地域を閉鎖した。"
"4960690","control","12","434822","33000","output","999","右下腹部に痛みを感じていたが放置していた。
最初は筋肉痛だと思っており特に何も気にしていなかった。
ちょうど妻が健康診断の結果を踏まえて、大腸内視鏡検査を受けていた。
自分ももしかしてと思い、大腸の不調を疑い始めた。
すぐに消化器内科を受診した。
念のため、大腸内視鏡を受けましょうということで、三週間後に決まった。
その後不安を抱えながらも日常を過ごしていたが、痛みが強くなってきた。
どう考えても筋肉的な痛みのため、腹壁瘢痕ヘルニアを疑った。
エコーで確認が取れないか、近所にクリニックを受診した。
大きな病院でCTをやらないとわからないということで紹介状をもらって予約を済ませた。
その予約日が来る前に、痛みが強く危機感を感じて受診した。
予約日前だが検査でき、その日は結果はわからなかった。
一週間後、MRIの結果が出て、原因が判明した。
腹斜筋断裂だった。
ホットしたが、３日後に大腸内視鏡検査を控えている。
原因は判明したからキャンセルするか悩んだ。
だが、せっかくだからと思い、気軽な気持ちで受けてみた。
すると、ポリープが見つかりその場で切除してもらった。
"
"1919427","control","9","371363","35000","output","1502","てつのりは長すぎた髪を切ろうと考え、いつも通っている美容院に行くことにした。
道中髪型をどうしようかと考えていたが、どうにも考えまとまらず、頭の中は自然と今年の夏のことに。

猛暑日が続く中、おじいちゃんが死んだという報が届いたのは8月の中旬だった。
てつのりは幼少期から祖父祖母のもとに預けられて、それから高校を卒業するまではずっと彼らと一緒にいたのだ。
そのため、報が届いたときにてつのりは我を失うほど泣き、近年会いに行けていなかったよ
"
"3283357","control","10","359806","27000","output","1591","1702年、カリブ海のトルトゥーガの島。海賊たちがたむろする酒場に、ボロボロの男が入店してくる。その男に声をかける赤いバンダナの男。「おい、あんた、どうした？　ここらじゃ見ない顔だな。」
ボロボロの男は答える。「オレは、ドラゴン海賊団のレイヴ。あ、あんたは？」
赤いバンダナの男は「オレはミゲルだ。ドラゴン海賊団って言ったら、スペイン船の私掠船の連中だろ？そんな奴がここにいたら、他の海賊たちに殺されちまうぞ。」
「お、オレは確かにスペイン公認の私掠船の海賊だが、スペイン政府のやり方と汚職が」"
"3710758","control","12","467647","42000","planning","1314","私はいま、北海道に旅行に来ています。
この旅行の目的はおいしいものをたくさん食べることです。
海に面していない県に住んでいるので、おいしい海鮮をおなか一杯に食べたいと、一年近く前から計画をしていました。
やっぱり北海道と言えばカニですね！
あとはホタテとか雲丹とかお寿司が食べたいです。
あと、北海道は牛乳がおいしそうなイメージがあるので、生クリームを使ったスイーツやソフトクリームを食べ歩きしたいです。
旅行の日程が2泊3日なので食べ歩くのにも限界がありますが、できる限り北海道の食を満喫して帰りたいと思います。
という見知らぬ人のSNS投稿を見て、自分も北海道へ行きたくなりました。
最近は旅費がどんどん高くなってきているので、ぜひドラえもんにどこでもドアをお借りして、ドアを開けたら北海道であってほしいです。"
"3260097","control","17","594750","44000","output","2052","小さな子猫と独りぼっちで寂しい思いをしている少年が雨の中出会った。最初は全く子猫に興味がなかったが、自分と同じように一人でいる猫に親近感を覚え、いつしかこの子とずっと一緒にいたいと思うようになる。

そんなある日、少年はいたはずの猫の姿を見失ってしまう。とても不安になりそこらじゅうを探し回っていると、いつの間にか母猫を見つけて一緒にいられるようになっていた。

心から良かったと思う反面、何だか自分だけ取り残されたような気持ちになり、また一人ぼっちの孤独を味わっていたら、今度はその母猫が少年の近くまで来てじっと見つめた後、ぺこりと人間のようにお辞儀をして子猫と一緒にその場を後にしていった。

自分に感謝してくれたのかな？僕は何かの役に立てた？そう思ったら急に嬉しくなり、自分でも誰かの役に立ったりできるんだと思うようになり、それ以来少年は積極的に人と話すことができるようになり、自分に自信がついて前よりもどんどん明るくなっていった。

人はひょんなことからか変わるきっかけを見つけることができ、それは人生のターニングポイントになることがある。

そんな教訓を肌で感じ、少年はよりいっそう誰かのために行動しようと思えるようになった。そんな成長ものがあり"
"4758400","control","9","309180","27000","output","1716","都内の路上。
とある人気女優が、帰路へと着いていた。
そんな時、道端で弱った黒猫を見つける。
明日は休みということもあって、彼女は自宅に連れ帰って看病した。
その猫は見る見る元気になり、彼女は安堵して床に就いた。
翌朝、彼女が目覚めると、何と頭には猫の耳が、腰には尻尾が付いていた。
すると、昨日助けた黒猫が、元気に人間の言葉を使って説明をする。
何と、助けてくれた恩返しとして、彼女がかつて猫になりたいと雑誌では発言していたことを真に受け、猫に変身させたのだ。
これでは困ると言った彼女は、元に戻る方法を黒猫に聞く。
曰く、もとにもどるためｎ"
"2172518","control","2","92303","24000","planning","1109","いぬの"
"1274239","control","15","520144","17000","revision","1375","ある日の真夜中、どうしてもお腹が空いて台所でカップ麺を作ろうとしていた。

お湯を注いでふたを閉じ、キッチンタイマーを3分にセット。

タイマーが「ピッ」と鳴った瞬間どこからともなくドアベルが鳴った。

こんな時間に誰だろうと思って玄関を開けると、作業服を着た配達員が立っていた。

胸には「ラーメン納品部」と書かれたワッペン。

「お待たせしました、納期通りです」

配達員は両手で大きな箱を差し出してきた。

中には作りかけのカップ麺がぎっしり詰まっているて、すべてお湯を入れてちょうど3分経った状態らしい。

「いや、もう作ってあるんで…」と言うと、配達員は一枚の書類を見せた。

『深夜即席麺契約書　第7条　3分後の納品義務』と書かれている。

「契約って…いつですか？」

配達員は少し困った顔で答えた。

「小学校3年生のとき、給食でラーメン食べましたよね？　あれです。」

結局、山本は一晩で14個のカップ麺を食べきった。

翌朝、食器棚を開けると、中はどんぶり麺でぎっしり埋まっていた。

そこには新しい書類が置かれていた。

『次回納期：明日3分後』"
"1533311","control","14","501444","39000","planning","830","おばあさんとおじいさんが川に洗濯に行きました。そこへ桃が流れてきましたが、二人とも見逃してしまいました。ある日、二人の元へ少年が現れました。少年は私は桃太郎だと自慢げに名乗りましたが、おじいさんとおばあさんは意味がわかりません。少年は二人に桃太郎の絵本を読んだことがないのかと尋ねました。二人は首を横に振りました。仕方なく少年は桃太郎という絵本を取り出しおじいさんとおばあさんに読み聞かせを始めました。すると二人はたいそう感激して少年にお礼を言い、"
"6233409","control","19","677990","15000","other","3671","二匹の猫が並んで歩いていました。
オスの猫は黒色、メスの猫は白色をしています。
黒色のオス猫は白色のメス猫の事がとても好きです。

向かい側からオスのトラ猫が歩いてきました。
トラ猫は白色のメス猫をとても気に入ったようです。

黒猫とトラ猫は白猫をめぐってのライバル関係になりました。
二匹とも白猫に気に入られるように何かプレゼントをあげようと考えます。

黒猫は白猫のためにどこかからソーセージを探して持ってきました。
トラ猫は白猫のためにどこかから煮干しを探して持ってきました。

白猫はどちらを食べようか迷っています。

黒猫とトラ猫はじっと目を合わせてにらみ合いながら一歩もゆずらない気持ちです。

しばらくするといつの間にか白猫がいなくなっている事に気が付きました。
ソーセージと煮干しはそのまま残っています。

二匹は慌てて白猫を探しました。すると少し離れたところに白猫がいました。
よく見ると毛並みのいいオスのグレーの猫と一緒にいます。
そして、グレーの猫が持ってきた高級な肉をおいしそうに食べていました。

黒猫とトラ猫はがっかりしてお互い目を合わせ、仕方なく仲良くソーセージと煮干しを分け合って食べました。

その後黒猫とトラ猫はとても仲のいい大親友になりました。"
"6337447","control","8","308791","42000","planning","1424","科学的なエビデンスとか、万人における再現性がどこまであるかはわからないんだけど、「身近なものを使って無料で楽しく遊んでいるうちに、自然に脳のワーキングメモリも鍛えられるなら最高じゃね？」という可能性について。

まず、用意するのは、ランダムな「4桁の数字」。個人的におすすめなのは、「現在時刻」とか「街中でパッと目に入った車のナンバープレート」とかかな。
これを「足す・引く・掛ける・割る」ことで、最終的に「10」を作る、という遊び。数字を使う順番は、任意で考えてもOK。

例えば「"
"5398551","control","17","556778","19000","planning","922","時代ははるか未来、AIが今より発展し、ロボットとして、人間と区別がつかないほど進化し、独自の意識を持つほどになっている。それほどまでに進化した彼らには、人間の人権のような権利が認められ、人間と共存していた。
しかしAIは万能ではない。人間が時におかしくなり犯罪を犯すように、AIもまたその回路に変調をきたすことがあり、そうなった場合彼らは罪を犯してしまう。人間以上に強靭な機械の体を持つ彼ら、その蛮行を止めるには、これまでの警察機構とは異なる、彼ら専用の強力な抑止となるものが必要になった。そうして設立されたのが、対AI警察機構カウンターAI、『CAI』である。この物語はCAIに所属することとなった新人AIロボットである『ジャック』の、戦いと葛藤についてのものである。
"
"3922243","control","14","462520","38000","output","712","　目が覚めると、真っ白い何もない部屋にいた。
　自分がどうしてここにいるのかもよくわからない。
　今まで自分が何をしていたのか思い出そうとするが、頭に靄がかかったように記憶がぼんやりとしていた。

　しばらく部屋でぼーっとしていたが、ふと気が付くと部屋の真ん中に小さなテーブルがあった。
　先ほどまでは無かったはずなのに、と不思議に思いながら近づくと、テーブルの上には一枚の紙があった。


　「どうして」


　赤い文字でそれだけが書かれていた。
　なにがどうしてなのだろう？そして誰がこれを書いたのだろう。
　様々な疑問が湧き上がってくる。と同時になんだか胸騒ぎもする。

　しばしの間、その紙を眺めていたが、ふと視線を上げると部屋の中に一つだけ扉が表れていた。
　何の変哲もない扉ではあったが、心の中ではなぜかその扉を開けてはいけないと強く警告されているような気がした。

　もう一度紙に視線を向ける。


　「どうして」


　赤くか細い字で書かれている。
　どうして。
　この字を見るととても胸がざわつく。

　しかしそうしていても部屋には何も変化はなく、一つため息をつくと、覚悟を決めて扉を開けてみることにした。


　扉をあけるとその先は真っ暗だった。
　かろうじてろうかであるこ"
"438363","control","13","457272","30000","revision","1471","僕は川沿いをランニングするのが日課だった。サッカー部に入っているのだが、部活を終えた後も、足腰を鍛え、持久力を付けるために、一度家に帰った後も、こうしてランニングに励むのだった。ある日、何時ものように川沿いを走っていると突然、空が真っ黒な雲に覆われ、雷の音が響いてきた。大きな雨粒がポツポツと降ってきて、僕の顔に当たる。「雷雨だ」と慌てて、近くの大きな樹の下に雨宿りをした。雨は激しくなるばかりだった。雨具を持っていないため、このままここに止まるしかない。暗くなり視界が悪くなっていく川の景色を眺めながら、ため息をついた。川の水かさはみるみる増していく。その時だった。激しい雷鳴や雨音に交じって"
"1919427","control","10","394941","19000","planning","1887","てつのりは長すぎた髪を切ろうと考え、いつも通っている美容院に行くことにした。
道中髪型をどうしようかと考えていたが、どうにも考えまとまらず、頭の中は自然と今年の夏のことに。

猛暑日が続く中、おじいちゃんが死んだという報が届いたのは8月の中旬だった。
てつのりは幼少期から祖父祖母のもとに預けられて、それから高校を卒業するまではずっと彼らと一緒にいたのだ。
そのため、報が届いたときにて近年会いに行けていなかった
"
"3585633","control","12","487956","27000","output","1254","私は、暗い夜道をひたすらに歩いていた。
ただまっすぐに、まっすぐに。
今が何時なのかは一切わからない。
極端に言えば、自分が誰なのかさえわかっていない。
ただただ、何かに追われているような気がして、焦っている。

何か心の中では、何とも言えない過去という恐怖から逃れているようにも感じる。
何分歩いたのだろう。私の前に赤い明りのついた建物が見えてきた。
それはとても不気味で、地獄の入り口のようにも感じた。
しかし、私の意思とは相反して、私の足は無理やりにその建物にちｋ"
"3283357","control","11","385078","21000","output","1662","1702年、カリブ海のトルトゥーガの島。海賊たちがたむろする酒場に、ボロボロの男が入店してくる。その男に声をかける赤いバンダナの男。「おい、あんた、どうした？　ここらじゃ見ない顔だな。」
ボロボロの男は答える。「オレは、ドラゴン海賊団のレイヴ。あ、あんたは？」
赤いバンダナの男は「オレはミゲルだ。ドラゴン海賊団って言ったら、スペイン船の私掠船の連中だろ？そんな奴がここにいたら、他の海賊たちに殺されちまうぞ。」
「お、オレは確かにスペイン公認の私掠船の海賊だが、スペイン政府のやり方と汚職が気にくわなくてな。逆にスペインのスクーナー船をおそってお」"
"1966230","control","9","368567","36000","output","1056","A子は楽しみにしていた映画を観にショッピングモールへと車で向かっていた。いつもの道路は通勤ラッシュなのか渋滞しており、ショッピングモールまではあと少しなのに一向に車が動かない状態が続いた。
時計を見ても開場時間の10分前が迫っていた。ようやく車が動き出してショッピングモールに着いたのは上映開始の2分前だった。
すぐに車を停めてトイレだけを済ませて、チケットのはっけ"
"2752457","control","14","542201","33000","planning","899","ある日、日本のとある農村部に未知のウイルスが蔓延し始める。そのウイルスに感染した者には、当初微熱が発症する。単なる風邪だろうとたかをくくっていると、その数日後に高熱・頭痛・悪寒・吐き気などの重症に発展していく。ついには吐血・目眩・意識混濁に陥り、最終的に絶命に至る。このウイルスの猛威の前に、日本国内の名だたる医学者たちも全くなすすべがなかった。新種のウイルスは農村部を起点に日本国内のあらゆる地域へ感染範囲を広げていく。事態を重く見た政府はウイルス感染者を隔離するため、一人でも感染者が見つかった地域をテレビやインターネットを通じて"
"839571","control","11","418580","43000","planning","2595","ある日宇宙に小さな花が咲いていました。
その小さな花はいつか別の星に行きたいと願っていました。
なぜなら、その小さな花は意思を持っており自分が新天地に旅建つことを夢に見ていたからでした。

ですが、その小さな花は所詮花なのでそこから動くことができませんでした。なので、宇宙の旅行者が自分のところに来て一緒に連れて行って欲しいと願っていました。

それしか、その小さな花が新天地に行く手段はなかったからです。そして、ついにその小さな花は新天地に旅立つチャンスがやってきました。

なぜなら、ついに宇宙の旅行者が自分のところに来てくれて自分を一緒に連れて行って欲しいと伝えることができるチャンスが来たからです。

そして、その小さな花は旅行者に自分も一緒に宇宙旅行に連れて行って欲しいと伝えました。

ですが、その"
"4758400","control","10","337186","24000","output","1604","都内の路上。
とある人気女優が、帰路へと着いていた。
そんな時、道端で弱った黒猫を見つける。
明日は休みということもあって、彼女は自宅に連れ帰って看病した。
その猫は見る見る元気になり、彼女は安堵して床に就いた。
翌朝、彼女が目覚めると、何と頭には猫の耳が、腰には尻尾が付いていた。
すると、昨日助けた黒猫が、元気に人間の言葉を使って説明をする。
何と、助けてくれた恩返しとして、彼女がかつて猫になりたいと雑誌では発言していたことを真に受け、猫に変身させたのだ。
これでは困ると言った彼女は、元に戻る方法を黒猫に聞く。
曰く、元に戻るためには、離れてしまった群れを探さなけば行けないのだそうだ。
"
"1274239","control","16","545648","23000","revision","1457","ある日の真夜中、どうしてもお腹が空いて台所でカップ麺を作ろうとしていた。

お湯を注いでふたを閉じ、キッチンタイマーを3分にセット。

タイマーが「ピッ」と鳴った瞬間どこからともなくドアベルが鳴った。

こんな時間に誰だろうと思って玄関を開けると、作業服を着た配達員が立っていた。

胸には「ラーメン納品部」と書かれたワッペン。

「お待たせしました、納期通りです」

配達員は両手で大きな箱を差し出してきた。

中には作りかけのカップ麺がぎっしり詰まっているて、すべてお湯を入れてちょうど3分経った状態らしい。

「いや、もう作ってあるんで…」と言うと、配達員は一枚の書類を見せた。

『深夜即席麺契約書　第7条　3分後の納品義務』と書かれている。

「契約って…いつですか？」

配達員は少し困った顔で答えた。

「小学校3年生のとき、給食でラーメン食べましたよね？　あれです。」

結局、山本は一晩で14個のカップ麺を食べきった。

翌朝、食器棚を開けると、中はどんぶり麺でぎっしり埋まっていた。

そこには新しい書類が置かれていた。

『次回納期：明日3分後』"
"6337447","control","9","331750","20000","revision","769","科学的なエビデンスとか、万人における再現性がどこまであるかはわからないんだけど、「身近なものを使って無料で楽しく遊んでいるうちに、自然に脳のワーキングメモリも鍛えられるなら最高じゃね？」という可能性について。

まず、用意するのは、ランダムな「4桁の数字」。個人的におすすめなのは、「現在時刻」とか「街中でパッと目に入った車のナンバープレート」とかかな。
これを「足す・引く・掛ける・割る」ことで、最終的に「10」を作る、という遊び。数字を使う順番は、任意で考えてもOK。

例えば「1457」だったら（※たまたま今見た、課題のｋ）"
"4960690","control","13","474911","37000","output","1011","右下腹部に痛みを感じていたが放置していた。
最初は筋肉痛だと思っており特に何も気にしていなかった。
ちょうど妻が健康診断の結果を踏まえて、大腸内視鏡検査を受けていた。
自分ももしかしてと思い、大腸の不調を疑い始めた。
すぐに消化器内科を受診した。
念のため、大腸内視鏡を受けましょうということで、三週間後に決まった。
その後不安を抱えながらも日常を過ごしていたが、痛みが強くなってきた。
どう考えても筋肉的な痛みのため、腹壁瘢痕ヘルニアを疑った。
エコーで確認が取れないか、近所にクリニックを受診した。
大きな病院でCTをやらないとわからないということで紹介状をもらって予約を済ませた。
その予約日が来る前に、痛みが強く危機感を感じて受診した。
予約日前だが検査でき、その日は結果はわからなかった。
一週間後、MRIの結果が出て、原因が判明した。
腹斜筋断裂だった。
ホットしたが、３日後に大腸内視鏡検査を控えている。
原因は判明したからキャンセルするか悩んだ。
だが、せっかくだからと思い、気軽な気持ちで受けてみた。
すると、ポリープが見つかりその場で切除してもらった。
痛みの原因は、腹斜筋断裂だが、このポリープ切除は偶然にも見つかって"
"1533311","control","15","532134","28000","output","891","おばあさんとおじいさんが川に洗濯に行きました。そこへ桃が流れてきましたが、二人とも見逃してしまいました。ある日、二人の元へ少年が現れました。少年は私は桃太郎だと自慢げに名乗りましたが、おじいさんとおばあさんは意味がわかりません。少年は二人に桃太郎の絵本を読んだことがないのかと尋ねました。二人は首を横に振りました。仕方なく少年は桃太郎という絵本を取り出しおじいさんとおばあさんに読み聞かせを始めました。すると二人はたいそう感激して少年にお礼を言い、二人の子供にならないかと言いました。"
"3922243","control","15","486890","22000","output","786","　目が覚めると、真っ白い何もない部屋にいた。
　自分がどうしてここにいるのかもよくわからない。
　今まで自分が何をしていたのか思い出そうとするが、頭に靄がかかったように記憶がぼんやりとしていた。

　しばらく部屋でぼーっとしていたが、ふと気が付くと部屋の真ん中に小さなテーブルがあった。
　先ほどまでは無かったはずなのに、と不思議に思いながら近づくと、テーブルの上には一枚の紙があった。


　「どうして」


　赤い文字でそれだけが書かれていた。
　なにがどうしてなのだろう？そして誰がこれを書いたのだろう。
　様々な疑問が湧き上がってくる。と同時になんだか胸騒ぎもする。

　しばしの間、その紙を眺めていたが、ふと視線を上げると部屋の中に一つだけ扉が表れていた。
　何の変哲もない扉ではあったが、心の中ではなぜかその扉を開けてはいけないと強く警告されているような気がした。

　もう一度紙に視線を向ける。


　「どうして」


　赤くか細い字で書かれている。
　どうして。
　この字を見るととても胸がざわつく。

　しかしそうしていても部屋には何も変化はなく、一つため息をつくと、覚悟を決めて扉を開けてみることにした。


　扉をあけるとその先は真っ暗だった。
　かろうじて廊下であることはわかるが、何の明かりもなく、ろうか"
"3260097","control","18","637158","40000","revision","1358","小さな子猫と独りぼっちで寂しい思いをしている少年が雨の中出会った。最初は全く子猫に興味がなかったが、自分と同じように一人でいる猫に親近感を覚え、いつしかこの子とずっと一緒にいたいと思うようになり、来る日も来る日も側にずっといた。

そんなある日、少年はいたはずの猫の姿を見失ってしまう。とても不安になりそこらじゅうを探し回っていると、いつの間にか母猫を見つけて一緒にいられるようになっていた。

心から良かったと思う反面、何だか自分だけ取り残されたような気持ちになり、また一人ぼっちの孤独を味わっていたら、今度はその母猫が少年の近くまで来てじっと見つめた後、ぺこりと人間のようにお辞儀をして子猫と一緒にその場を後にしていった。

自分に感謝してくれたのかな？僕は何かの役に立てた？そう思ったら急に嬉しくなり、自分でも誰かの役に立ったりできるんだと思うようになり、それ以来少年は積極的に人と話すことができるようになり、自分に自信がついて前よりもどんどん明るくなっていった。

人はひょんなことからか変わるきっかけを見つけることができ、それは人生のターニングポイントになることがある。

そんな教訓を肌で感じ、少年はよりいっそう誰かのために行動しようと思えるようになった。そんな成長物語。"
"2172518","control","3","131527","36000","output","1198","犬のシロはｓ"
"5398551","control","18","595397","36000","planning","894","時代ははるか未来、AIが今より発展し、ロボットとして、人間と区別がつかないほど進化し、独自の意識を持つほどになっている。それほどまでに進化した彼らには、人間の人権のような権利が認められ、人間と共存していた。
しかしAIは万能ではない。人間が時におかしくなり犯罪を犯すように、AIもまたその回路に変調をきたすことがあり、そうなった場合彼らは罪を犯してしまう。人間以上に強靭な機械の体を持つ彼ら、その蛮行を止めるには、これまでの警察機構とは異なる、彼ら専用の強力な抑止となるものが必要になった。そうして設立されたのが、対AI警察機構カウンターAI、『CAI』である。この物語はCAIに所属することとなった新人AIロボットである『ジャック』の、戦いと葛藤についてのものである。
新人であるジャックが配属された部署には、べてらｎ"
"438363","control","14","496822","34000","output","2023","僕は川沿いをランニングするのが日課だった。サッカー部に入っているのだが、部活を終えた後も、足腰を鍛え、持久力を付けるために、一度家に帰った後も、こうしてランニングに励むのだった。ある日、何時ものように川沿いを走っていると突然、空が真っ黒な雲に覆われ、雷の音が響いてきた。大きな雨粒がポツポツと降ってきて、僕の顔に当たる。「雷雨だ」と慌てて、近くの大きな樹の下に雨宿りをした。雨は激しくなるばかりだった。雨具を持っていないため、このままここに止まるしかない。暗くなり視界が悪くなっていく川の景色を眺めながら、ため息をついた。川の水かさはみるみる増していく。その時だった。「そこにいては危険ですよ」激しい雷鳴や雨音に交じって、誰かがよびかけ"
"839571","control","12","447613","25000","output","2146","ある日宇宙に小さな花が咲いていました。
その小さな花はいつか別の星に行きたいと願っていました。
なぜなら、その小さな花は意思を持っており自分が新天地に旅建つことを夢に見ていたからでした。

ですが、その小さな花は所詮花なのでそこから動くことができませんでした。なので、宇宙の旅行者が自分のところに来て一緒に連れて行って欲しいと願っていました。

それしか、その小さな花が新天地に行く手段はなかったからです。そして、ついにその小さな花は新天地に旅立つチャンスがやってきました。

なぜなら、ついに宇宙の旅行者が自分のところに来てくれて自分を一緒に連れて行って欲しいと伝えることができるチャンスが来たからです。

そして、その小さな花は旅行者に自分も一緒に宇宙旅行に連れて行って欲しいと伝えました。

ですが、その旅行者はある条件を飲めば"
"4758400","control","11","362912","22000","planning","1914","都内の路上。
とある人気女優が、帰路へと着いていた。
そんな時、道端で弱った黒猫を見つける。
明日は休みということもあって、彼女は自宅に連れ帰って看病した。
その猫は見る見る元気になり、彼女は安堵して床に就いた。
翌朝、彼女が目覚めると、何と頭には猫の耳が、腰には尻尾が付いていた。
すると、昨日助けた黒猫が、元気に人間の言葉を使って説明をする。
何と、助けてくれた恩返しとして、彼女がかつて猫になりたいと雑誌では発言していたことを真に受け、猫に変身させたのだ。
これでは困ると言った彼女は、元に戻る方法を黒猫に聞く。
曰く、元に戻るためには、離れてしまった群れを探さなけば行けないのだそうだ。
翌日以降、一人と一匹は、群れ探しに出かける、"
"1966230","control","10","403615","32000","output","1030","A子は楽しみにしていた映画を観にショッピングモールへと車で向かっていた。いつもの道路は通勤ラッシュなのか渋滞しており、ショッピングモールまではあと少しなのに一向に車が動かない状態が続いた。
時計を見ても開場時間の10分前が迫っていた。ようやく車が動き出してショッピングモールに着いたのは上映開始の2分前だった。
すぐに車を停めてトイレだけを済ませて、チケットの発券を行い、無事に座席に座ったのは上映開始時間だったけれど、なんとか間に合った。幸い映画は"
"1304218","control","0","36852","18000","planning","12536",
"3585633","control","13","533335","42000","output","1283","私は、暗い夜道をひたすらに歩いていた。
ただまっすぐに、まっすぐに。
今が何時なのかは一切わからない。
極端に言えば、自分が誰なのかさえわかっていない。
ただただ、何かに追われているような気がして、焦っている。

何か心の中では、何とも言えない過去という恐怖から逃れているようにも感じる。
何分歩いたのだろう。私の前に赤い明りのついた建物が見えてきた。
それはとても不気味で、地獄の入り口のようにも感じた。
しかし、私の意思とは相反して、私の足は無理やりにその建物にどんどんと近づいて行こうとする。

私は、じぶん"
"3283357","control","12","429182","41000","output","1604","1702年、カリブ海のトルトゥーガの島。海賊たちがたむろする酒場に、ボロボロの男が入店してくる。その男に声をかける赤いバンダナの男。「おい、あんた、どうした？　ここらじゃ見ない顔だな。」
ボロボロの男は答える。「オレは、ドラゴン海賊団のレイヴ。あ、あんたは？」
赤いバンダナの男は「オレはミゲルだ。ドラゴン海賊団って言ったら、スペイン船の私掠船の連中だろ？そんな奴がここにいたら、他の海賊たちに殺されちまうぞ。」
「お、オレは確かにスペイン公認の私掠船の海賊だが、スペイン政府のやり方と汚職が気にくわなくてな。逆にスペインのスクーナー船を襲っているところを、スペイン政府の艦隊に襲撃をくらって、船は大破。オレは、木の板」"
"1919427","control","11","441599","43000","planning","1865","てつのりは長すぎた髪を切ろうと考え、いつも通っている美容院に行くことにした。
道中髪型をどうしようかと考えていたが、どうにも考えまとまらず、頭の中は自然と今年の夏のことに。

猛暑日が続く中、おじいちゃんが死んだという報が届いたのは8月の中旬だった。
てつのりは幼少期から祖父祖母のもとに預けられて、それから高校を卒業するまではずっと彼らと一緒にいたのだ。
そのため、報が届いたときには近年会いに行けていなかったことや昔の思い出などが頭を巡り、てつのりは我を失うほど泣いた。


"
"2752457","control","15","581678","37000","planning","992","ある日、日本のとある農村部に未知のウイルスが蔓延し始める。そのウイルスに感染した者には、当初微熱が発症する。単なる風邪だろうとたかをくくっていると、その数日後に高熱・頭痛・悪寒・吐き気などの重症に発展していく。ついには吐血・目眩・意識混濁に陥り、最終的に絶命に至る。このウイルスの猛威の前に、日本国内の名だたる医学者たちも全くなすすべがなかった。新種のウイルスは農村部を起点に日本国内のあらゆる地域へ感染範囲を広げていく。事態を重く見た政府はウイルスの感染を食い止めるため、一人でも感染者が見つかった地域をテレビやインターネットを通じて発信し、"
"6337447","control","10","369506","35000","output","850","科学的なエビデンスとか、万人における再現性がどこまであるかはわからないんだけど、「身近なものを使って無料で楽しく遊んでいるうちに、自然に脳のワーキングメモリも鍛えられるなら最高じゃね？」という可能性について。

まず、用意するのは、ランダムな「4桁の数字」。個人的におすすめなのは、「現在時刻」とか「街中でパッと目に入った車のナンバープレート」とかかな。
これを「足す・引く・掛ける・割る」ことで、最終的に「10」を作る、という遊び。数字を使う順番は、任意で考えてもOK。

例えば「1457」だったら（※たまたま今見た、課題の残り時間の表示があと14分57秒だったので）、
1+4＝5、7-5＝2、5×2"
"5398551","control","19","617903","19000","revision","912","時代ははるか未来、AIが今より発展し、ロボットとして、人間と区別がつかないほど進化し、独自の意識を持つほどになっている。それほどまでに進化した彼らには、人間の人権のような権利が認められ、人間と共存していた。
しかしAIは万能ではない。人間が時におかしくなり犯罪を犯すように、AIもまたその回路に変調をきたすことがあり、そうなった場合彼らは罪を犯してしまう。人間以上に強靭な機械の体を持つ彼ら、その蛮行を止めるには、これまでの警察機構とは異なる、彼ら専用の強力な抑止となるものが必要になった。そうして設立されたのが、対AI警察機構カウンターAI、『CAI』である。この物語はCAIに所属することとなった新人AIロボットである『ジャック』の、戦いと葛藤についてのものである。
新人であるジャックが配属された部署には、ベテランである『ブラウン』という"
"1274239","control","17","587976","40000","revision","1448","ある日の真夜中、どうしてもお腹が空いて台所でカップ麺を作ろうとしていた。

お湯を注いでふたを閉じ、キッチンタイマーを3分にセット。

タイマーが「ピッ」と鳴った瞬間どこからともなくドアベルが鳴った。

こんな時間に誰だろうと思って玄関を開けると、作業服を着た配達員が立っていた。

胸には「ラーメン納品部」と書かれたワッペン。

「お待たせしました、納期通りです」

配達員は両手で大きな箱を差し出してきた。

中には作りかけのカップ麺がぎっしり詰まっていて、すべてお湯を入れてちょうど3分経った状態らしい。

「いや、もう作ってあるんで…」と言うと、配達員は一枚の書類を見せた。

『契約書　第7条　3分後の納品義務』と書かれている。

「契約って…いつですか？」

配達員は少し困った顔で答えた。

「小学校3年生のとき、給食でラーメン食べましたよね？あれです。」

結局、僕は一晩で14個のカップ麺を食べきった。

翌朝、食器棚を開けると、中はどんぶり麺でぎっしり埋まっていた。

そこには新しい書類が置かれていた。

『次回納期：明日3分後』"
"3922243","control","16","525308","36000","planning","1302","　目が覚めると、真っ白い何もない部屋にいた。
　自分がどうしてここにいるのかもよくわからない。
　今まで自分が何をしていたのか思い出そうとするが、頭に靄がかかったように記憶がぼんやりとしていた。

　しばらく部屋でぼーっとしていたが、ふと気が付くと部屋の真ん中に小さなテーブルがあった。
　先ほどまでは無かったはずなのに、と不思議に思いながら近づくと、テーブルの上には一枚の紙があった。


　「どうして」


　赤い文字でそれだけが書かれていた。
　なにがどうしてなのだろう？そして誰がこれを書いたのだろう。
　様々な疑問が湧き上がってくる。と同時になんだか胸騒ぎもする。

　しばしの間、その紙を眺めていたが、ふと視線を上げると部屋の中に一つだけ扉が表れていた。
　何の変哲もない扉ではあったが、心の中ではなぜかその扉を開けてはいけないと強く警告されているような気がした。

　もう一度紙に視線を向ける。


　「どうして」


　赤くか細い字で書かれている。
　どうして。
　この字を見るととても胸がざわつく。

　しかしそうしていても部屋には何も変化はなく、一つため息をつくと、覚悟を決めて扉を開けてみることにした。


　扉をあけるとその先は真っ暗だった。
　かろうじて廊下であることはわかるが、何の明かりもなく、廊下の先がどうなっているのかもわからない。

　扉を開けたところで、"
"4758400","control","12","383002","16000","planning","2026","都内の路上。
とある人気女優が、帰路へと着いていた。
そんな時、道端で弱った黒猫を見つける。
明日は休みということもあって、彼女は自宅に連れ帰って看病した。
その猫は見る見る元気になり、彼女は安堵して床に就いた。
翌朝、彼女が目覚めると、何と頭には猫の耳が、腰には尻尾が付いていた。
すると、昨日助けた黒猫が、元気に人間の言葉を使って説明をする。
何と、助けてくれた恩返しとして、彼女がかつて猫になりたいと雑誌では発言していたことを真に受け、猫に変身させたのだ。
これでは困ると言った彼女は、元に戻る方法を黒猫に聞く。
曰く、元に戻るためには、離れてしまった群れを探さなけば行けないのだそうだ。
翌日以降、一人と一匹は、群れ探しに出かける。
様々なみ"
"4960690","control","14","521950","44000","output","1043","右下腹部に痛みを感じていたが放置していた。
最初は筋肉痛だと思っており特に何も気にしていなかった。
ちょうど妻が健康診断の結果を踏まえて、大腸内視鏡検査を受けていた。
自分ももしかしてと思い、大腸の不調を疑い始めた。
すぐに消化器内科を受診した。
念のため、大腸内視鏡を受けましょうということで、三週間後に決まった。
その後不安を抱えながらも日常を過ごしていたが、痛みが強くなってきた。
どう考えても筋肉的な痛みのため、腹壁瘢痕ヘルニアを疑った。
エコーで確認が取れないか、近所にクリニックを受診した。
大きな病院でCTをやらないとわからないということで紹介状をもらって予約を済ませた。
その予約日が来る前に、痛みが強く危機感を感じて受診した。
予約日前だが検査でき、その日は結果はわからなかった。
一週間後、MRIの結果が出て、原因が判明した。
腹斜筋断裂だった。
ホットしたが、３日後に大腸内視鏡検査を控えている。
原因は判明したからキャンセルするか悩んだ。
だが、せっかくだからと思い、気軽な気持ちで受けてみた。
すると、ポリープが見つかりその場で切除してもらった。
痛みの原因は、腹斜筋断裂だが、このポリープ切除は偶然にも見つかってラッキーだったといえる。
ちょうど妻の検査と腹斜筋断裂という何らかのシンクロニシティを感じるじ"
"1966230","control","11","423255","17000","output","1037","A子は楽しみにしていた映画を観にショッピングモールへと車で向かっていた。いつもの道路は通勤ラッシュなのか渋滞しており、ショッピングモールまではあと少しなのに一向に車が動かない状態が続いた。
時計を見ても開場時間の10分前が迫っていた。ようやく車が動き出してショッピングモールに着いたのは上映開始の2分前だった。
すぐに車を停めてトイレだけを済ませて、チケットの発券を行い、無事に座席に座ったのは上映開始時間だったけれど、なんとか間に合った。幸い映画が始まる前の予告映像ばかりがスクリーンにうつしだされてい"
"3283357","control","13","448077","16000","output","1127","1702年、カリブ海のトルトゥーガの島。海賊たちがたむろする酒場に、ボロボロの男が入店してくる。その男に声をかける赤いバンダナの男。「おい、あんた、どうした？　ここらじゃ見ない顔だな。」
ボロボロの男は答える。「オレは、ドラゴン海賊団のレイヴ。あ、あんたは？」
赤いバンダナの男は「オレはミゲルだ。ドラゴン海賊団って言ったら、スペイン船の私掠船の連中だろ？そんな奴がここにいたら、他の海賊たちに殺されちまうぞ。」
「お、オレは確かにスペイン公認の私掠船の海賊だが、スペイン政府のやり方と汚職が気にくわなくてな。逆にスペインのスクーナー船を襲っているところを、スペイン政府の艦隊に襲撃をくらって、船は大破。オレは命からがら、この島に」"
"3260097","control","19","682998","43000","revision","1546","小さな子猫と独りぼっちで寂しい思いをしている少年が雨の中出会った。最初は全く子猫に興味がなかったが、自分と同じように一人でいる猫に親近感を覚え、いつしかこの子とずっと一緒にいたいと思うようになり、来る日も来る日も側にずっといた。時々ご飯をあげたりもした。

そんなある日、少年はいたはずの猫の姿を見失ってしまう。とても不安になりそこらじゅうを探し回っていると、いつの間にか母猫を見つけて一緒にいられるようになっていた。

心から良かったと思う反面、何だか自分だけ取り残されたような気持ちになり、また一人ぼっちの孤独を味わっていたら、今度はその母猫が少年の近くまで来てじっと見つめた後、ぺこりと人間のようにお辞儀をして子猫と一緒にその場を後にしていった。

自分に感謝してくれたのかな？僕は何かの役に立てた？そう思ったら急に嬉しくなり、自分でも誰かの役に立ったりできるんだと思うようになり、それ以来少年は積極的に人と話すことができるようになり、自分に自信がついて前よりもどんどん明るくなっていった。

人はひょんなことからか変わるきっかけを見つけることができ、それは人生のターニングポイントになることがある。

そんな教訓を肌で感じ、少年はよりいっそう誰かのために行動しようと思えるようになった。そんな成長物語。"
"2172518","control","4","170576","34000","planning","998","犬のシロは飼い主の健太と散歩中にはぐれてしまいました。"
"1533311","control","16","579661","45000","output","808","おばあさんとおじいさんが川に洗濯に行きました。そこへ桃が流れてきましたが、二人とも見逃してしまいました。ある日、二人の元へ少年が現れました。少年は私は桃太郎だと自慢げに名乗りましたが、おじいさんとおばあさんは意味がわかりません。少年は二人に桃太郎の絵本を読んだことがないのかと尋ねました。二人は首を横に振りました。仕方なく少年は桃太郎という絵本を取り出しおじいさんとおばあさんに読み聞かせを始めました。すると二人はたいそう感激して少年にお礼を言いました。二人の"
"2752457","control","16","599520","15000","planning","968","ある日、日本のとある農村部に未知のウイルスが蔓延し始める。そのウイルスに感染した者には、当初微熱が発症する。単なる風邪だろうとたかをくくっていると、その数日後に高熱・頭痛・悪寒・吐き気などの重症に発展していく。ついには吐血・目眩・意識混濁に陥り、最終的に絶命に至る。このウイルスの猛威の前に、日本国内の名だたる医学者たちも全くなすすべがなかった。新種のウイルスは農村部を起点に日本国内のあらゆる地域へ感染範囲を広げていく。事態を重く見た政府はウイルスの感染を食い止めるため、一人でも感染者が見つかった地域に近づかないようテレビやインターネットを通じて発信し、"
"6337447","control","11","388187","16000","planning","811","科学的なエビデンスとか、万人における再現性がどこまであるかはわからないんだけど、「身近なものを使って無料で楽しく遊んでいるうちに、自然に脳のワーキングメモリも鍛えられるなら最高じゃね？」という可能性について。

まず、用意するのは、ランダムな「4桁の数字」。個人的におすすめなのは、「現在時刻」とか「街中でパッと目に入った車のナンバープレート」とかかな。
これを「足す・引く・掛ける・割る」ことで、最終的に「10」を作る、という遊び。数字を使う順番は、任意で考えてもOK。

例えば「1457」だったら（※たまたま今見た、課題の残り時間の表示があと14分57秒だったので）、
1+4＝5、7-5＝2、5×2＝10
終わり。のような形でやる。

"
"5398551","control","20","643468","23000","revision","842","時代ははるか未来、AIが今より発展し、ロボットとして、人間と区別がつかないほど進化し、独自の意識を持つほどになっている。それほどまでに進化した彼らには、人間の人権のような権利が認められ、人間と共存していた。
しかしAIは万能ではない。人間が時におかしくなり犯罪を犯すように、AIもまたその回路に変調をきたすことがあり、そうなった場合彼らは罪を犯してしまう。人間以上に強靭な機械の体を持つ彼ら、その蛮行を止めるには、これまでの警察機構とは異なる、彼ら専用の強力な抑止となるものが必要になった。そうして設立されたのが、対AI警察機構カウンターAI、『CAI』である。この物語はCAIに所属することとなった新人AIロボットである『ジャック』の、戦いと葛藤についてのものである。
新人であるジャックが配属された部署には、ベテランである『ブラウン』という高性能AIを搭載した特別なロボットが所属していて、"
"438363","control","15","540390","40000","output","1038","僕は川沿いをランニングするのが日課だった。サッカー部に入っているのだが、部活を終えた後も、足腰を鍛え、持久力を付けるために、一度家に帰った後も、こうしてランニングに励むのだった。ある日、何時ものように川沿いを走っていると突然、空が真っ黒な雲に覆われ、雷の音が響いてきた。大きな雨粒がポツポツと降ってきて、僕の顔に当たる。「雷雨だ」と慌てて、近くの大きな樹の下に雨宿りをした。雨は激しくなるばかりだった。雨具を持っていないため、このままここに止まるしかない。暗くなり視界が悪くなっていく川の景色を眺めながら、ため息をついた。川の水かさはみるみる増していく。その時だった。「そこにいては危険ですよ」激しい雷鳴や雨音に交じって、誰かが僕に呼びかける声がした。声のする方向に顔を向けると、あｋ"
"1919427","control","12","477270","32000","output","1640","てつのりは長すぎた髪を切ろうと考え、いつも通っている美容院に行くことにした。
道中髪型をどうしようかと考えていたが、どうにも考えまとまらず、頭の中は自然と今年の夏のことに。

猛暑日が続く中、おじいちゃんが死んだという報が届いたのは8月の中旬だった。
てつのりは幼少期から祖父祖母のもとに預けられて、それから高校を卒業するまではずっと彼らと一緒にいたのだ。
そのため、報が届いたときには近年会いに行けていなかったことや昔の思い出などが頭を巡り、てつのりは我を失うほど泣いた。

特に覚えているのは、おじいちゃんと一緒にプールに行った時のことだ。
てつのりは"
"3283357","control","14","466134","15000","output","1608","1702年、カリブ海のトルトゥーガの島。海賊たちがたむろする酒場に、ボロボロの男が入店してくる。その男に声をかける赤いバンダナの男。「おい、あんた、どうした？　ここらじゃ見ない顔だな。」
ボロボロの男は答える。「オレは、ドラゴン海賊団のレイヴ。あ、あんたは？」
赤いバンダナの男は「オレはミゲルだ。ドラゴン海賊団って言ったら、スペイン船の私掠船の連中だろ？そんな奴がここにいたら、他の海賊たちに殺されちまうぞ。」
「お、オレは確かにスペイン公認の私掠船の海賊だが、スペイン政府のやり方と汚職が気にくわなくてな。逆にスペインのスクーナー船を襲っているところを、スペイン政府の艦隊に襲撃をくらって、船は大破。オレは命からがら、この島に着いたってわけだ。」
ミゲルは"
"839571","control","13","491076","39000","planning","2790","ある日宇宙に小さな花が咲いていました。
その小さな花はいつか別の星に行きたいと願っていました。
なぜなら、その小さな花は意思を持っており自分が新天地に旅建つことを夢に見ていたからでした。

ですが、その小さな花は所詮花なのでそこから動くことができませんでした。なので、宇宙の旅行者が自分のところに来て一緒に連れて行って欲しいと願っていました。

それしか、その小さな花が新天地に行く手段はなかったからです。そして、ついにその小さな花は新天地に旅立つチャンスがやってきました。

なぜなら、ついに宇宙の旅行者が自分のところに来てくれて自分を一緒に連れて行って欲しいと伝えることができるチャンスが来たからです。

そして、その小さな花は旅行者に自分も一緒に宇宙旅行に連れて行って欲しいと伝えました。

ですが、その旅行者はある条件を飲めば一緒に連れていくと言って無条件では連れていってくれませんでした。

花はどうしても"
"3585633","control","14","573012","36000","revision","1592","私は、暗い夜道をひたすらに歩いていた。
ただまっすぐに、まっすぐに。
今が何時なのかは一切わからない。
極端に言えば、自分が誰なのかさえわかっていない。
ただただ、何かに追われているような気がして、焦っている。

何か心の中では、何とも言えない過去という恐怖から逃れているようにも感じる。
何分歩いたのだろう。私の前に赤い明りのついた建物が見えてきた。
それはとても不気味で、地獄の入り口のようにも感じた。
しかし、私の意思とは相反して、私の足は無理やりにその建物にどんどんと近づいて行こうとする。

私は、自分の足をどうにかして止めるように必死に"
"1533311","control","17","598141","16000","planning","929","おばあさんとおじいさんが川に洗濯に行きました。そこへ桃が流れてきましたが、二人とも見逃してしまいました。ある日、二人の元へ少年が現れました。少年は私は桃太郎だと自慢げに名乗りましたが、おじいさんとおばあさんは意味がわかりません。少年は二人に桃太郎の絵本を読んだことがないのかと尋ねました。二人は首を横に振りました。仕方なく少年は桃太郎という絵本を取り出しおじいさんとおばあさんに読み聞かせを始めました。すると二人はたいそう感激して少年にお礼を言いました。絵本をｙ"
"1274239","control","18","618216","28000","revision","1398","ある日の真夜中、どうしてもお腹が空いて台所でカップ麺を作ろうとしていた。

お湯を注いでふたを閉じ、キッチンタイマーを3分にセット。

タイマーが「ピッ」と鳴った瞬間どこからともなくドアベルが鳴った。

こんな時間に誰だろうと思って玄関を開けると、作業服を着た配達員が立っていた。

胸には「ラーメン納品部」と書かれたワッペン。

「お待たせしました、納期通りです」

配達員は両手で大きな箱を差し出してきた。

中には作りかけのカップ麺がぎっしり詰まっていて、すべてお湯を入れてちょうど3分経った状態らしい。

「いや、もう作ってあるんで…」と言うと、配達員は一枚の書類を見せた。

『契約書　第7条　3分後の納品義務』と書かれている。

「契約って…いつですか？」

配達員は少し困った顔で答えた。

「小学校3年生のとき、給食でラーメン食べましたよね？あれです。」

結局、僕は一晩で14個のカップ麺を食べきった。

翌朝食器棚を開けると中はどんぶり麺でぎっしり埋まっていて、そこには新しい書類が置かれていた。

『次回納期：明日3分後』"
"3922243","control","17","554166","27000","output","738","　目が覚めると、真っ白い何もない部屋にいた。
　自分がどうしてここにいるのかもよくわからない。
　今まで自分が何をしていたのか思い出そうとするが、頭に靄がかかったように記憶がぼんやりとしていた。

　しばらく部屋でぼーっとしていたが、ふと気が付くと部屋の真ん中に小さなテーブルがあった。
　先ほどまでは無かったはずなのに、と不思議に思いながら近づくと、テーブルの上には一枚の紙があった。


　「どうして」


　赤い文字でそれだけが書かれていた。
　なにがどうしてなのだろう？そして誰がこれを書いたのだろう。
　様々な疑問が湧き上がってくる。と同時になんだか胸騒ぎもする。

　しばしの間、その紙を眺めていたが、ふと視線を上げると部屋の中に一つだけ扉が表れていた。
　何の変哲もない扉ではあったが、心の中ではなぜかその扉を開けてはいけないと強く警告されているような気がした。

　もう一度紙に視線を向ける。


　「どうして」


　赤くか細い字で書かれている。
　どうして。
　この字を見るととても胸がざわつく。

　しかしそうしていても部屋には何も変化はなく、一つため息をつくと、覚悟を決めて扉を開けてみることにした。


　扉をあけるとその先は真っ暗だった。
　かろうじて廊下であることはわかるが、何の明かりもなく、廊下の先がどうなっているのかもわからない。

　扉を開けたところで呆然とたちつくしｔ"
"1304218","control","1","80831","37000","planning","2817","あるもりのな"
"3260097","control","20","705942","19000","revision","1702","小さな子猫と独りぼっちで寂しい思いをしている少年が雨の中出会った。最初は全く子猫に興味がなかったが、自分と同じように一人でいる猫に親近感を覚え、いつしかこの子とずっと一緒にいたいと思うようになり、来る日も来る日も側にずっといた。時々ご飯をあげたりもした。

そんなある日、少年はいたはずの猫の姿を見失ってしまう。とても不安になりそこらじゅうを探し回っていると、いつの間にか母猫を見つけて一緒にいられるようになっていた。

心から良かったと思う反面、何だか自分だけ取り残されたような気持ちになり、また一人ぼっちの孤独を味わっていたら、今度はその母猫が少年の近くまで来てじっと見つめた後、ぺこりと人間のようにお辞儀をして子猫と一緒にその場を後にしていった。

自分に感謝してくれたのかな？僕は何かの役に立てた？そう思ったら急に嬉しくなり、自分でも誰かの役に立ったりできるんだと思うようになり、それ以来少年は積極的に人と話すことができるようになり、自分に自信がついて前よりもどんどん明るくなっていった。

人はひょんなことからか変わるきっかけを見つけることができ、それは人生のターニングポイントになることがある。

そんな教訓を肌で感じ、少年はよりいっそう誰かのために行動しようと思えるようになった。そんな成長物語。"
"4758400","control","13","412610","25000","output","1478","都内の路上。
とある人気女優が、帰路へと着いていた。
そんな時、道端で弱った黒猫を見つける。
明日は休みということもあって、彼女は自宅に連れ帰って看病した。
その猫は見る見る元気になり、彼女は安堵して床に就いた。
翌朝、彼女が目覚めると、何と頭には猫の耳が、腰には尻尾が付いていた。
すると、昨日助けた黒猫が、元気に人間の言葉を使って説明をする。
何と、助けてくれた恩返しとして、彼女がかつて猫になりたいと雑誌では発言していたことを真に受け、猫に変身させたのだ。
これでは困ると言った彼女は、元に戻る方法を黒猫に聞く。
曰く、元に戻るためには、離れてしまった群れを探さなけば行けないのだそうだ。
翌日以降、一人と一匹は、群れ探しに出かける。
様々な道行く野良猫に聞いた結果、都内の自然公園の森に"
"2752457","control","17","623675","21000","planning","1705","ある日、日本のとある農村部に未知のウイルスが蔓延し始めた。そのウイルスに感染した者には、当初微熱が発症する。単なる風邪だろうとたかをくくっていると、その数日後に高熱・頭痛・悪寒・吐き気などの重症に発展していく。ついには吐血・目眩・意識混濁に陥り、最終的に絶命に至る。このウイルスの猛威の前に、日本国内の名だたる医学者たちも全くなすすべがなかった。新種のウイルスは農村部を起点に日本国内のあらゆる地域へ感染範囲を広げていく。事態を重く見た政府はウイルスの感染を食い止めるため、一人でも感染者が見つかった地域に近づかないようテレビやインターネットを通じて発信した。"
"5398551","control","21","666019","20000","output","834","時代ははるか未来、AIが今より発展し、ロボットとして、人間と区別がつかないほど進化し、独自の意識を持つほどになっている。それほどまでに進化した彼らには、人間の人権のような権利が認められ、人間と共存していた。
しかしAIは万能ではない。人間が時におかしくなり犯罪を犯すように、AIもまたその回路に変調をきたすことがあり、そうなった場合彼らは罪を犯してしまう。人間以上に強靭な機械の体を持つ彼ら、その蛮行を止めるには、これまでの警察機構とは異なる、彼ら専用の強力な抑止となるものが必要になった。そうして設立されたのが、対AI警察機構カウンターAI、『CAI』である。この物語はCAIに所属することとなった新人AIロボットである『ジャック』の、戦いと葛藤についてのものである。
新人であるジャックが配属された部署には、ベテランである『ブラウン』という高性能AIを搭載した特別なロボットが所属していて、ジャックは彼に教えを乞うことになった。ジャック"
"438363","control","16","562862","19000","output","1443","僕は川沿いをランニングするのが日課だった。サッカー部に入っているのだが、部活を終えた後も、足腰を鍛え、持久力を付けるために、一度家に帰った後も、こうしてランニングに励むのだった。ある日、何時ものように川沿いを走っていると突然、空が真っ黒な雲に覆われ、雷の音が響いてきた。大きな雨粒がポツポツと降ってきて、僕の顔に当たる。「雷雨だ」と慌てて、近くの大きな樹の下に雨宿りをした。雨は激しくなるばかりだった。雨具を持っていないため、このままここに止まるしかない。暗くなり視界が悪くなっていく川の景色を眺めながら、ため息をついた。川の水かさはみるみる増していく。その時だった。「そこにいては危険ですよ」激しい雷鳴や雨音に交じって、誰かが僕に呼びかける声がした。声のする方向に顔を向けると、赤い傘を差したじょしこうこうせいふうｎ"
"1533311","control","18","617206","16000","planning","1002","おばあさんとおじいさんが川に洗濯に行きました。そこへ桃が流れてきましたが、二人とも見逃してしまいました。ある日、二人の元へ少年が現れました。少年は私は桃太郎だと自慢げに名乗りましたが、おじいさんとおばあさんは意味がわかりません。少年は二人に桃太郎の絵本を読んだことがないのかと尋ねました。二人は首を横に振りました。仕方なく少年は桃太郎という絵本を取り出しおじいさんとおばあさんに読み聞かせを始めました。すると二人はたいそう感激して少年にお礼を言いました。そして少年にもっと他にも絵本を"
"3283357","control","15","489070","20000","output","1103","1702年、カリブ海のトルトゥーガの島。海賊たちがたむろする酒場に、ボロボロの男が入店してくる。その男に声をかける赤いバンダナの男。「おい、あんた、どうした？　ここらじゃ見ない顔だな。」
ボロボロの男は答える。「オレは、ドラゴン海賊団のレイヴ。あ、あんたは？」
赤いバンダナの男は「オレはミゲルだ。ドラゴン海賊団って言ったら、スペイン船の私掠船の連中だろ？そんな奴がここにいたら、他の海賊たちに殺されちまうぞ。」
「お、オレは確かにスペイン公認の私掠船の海賊だが、スペイン政府のやり方と汚職が気にくわなくてな。逆にスペインのスクーナー船を襲っているところを、スペイン政府の艦隊に襲撃をくらって、船は大破。オレは命からがら、この島に着いたってわけだ。」
ミゲルはレイヴがうその事を言っているのか本当のことを言っているのか"
"2752457","control","18","640949","15000","planning","961","ある日、日本のとある農村部に未知のウイルスが蔓延し始めた。そのウイルスに感染した者には、当初微熱が発症する。単なる風邪だろうとたかをくくっていると、その数日後に高熱・頭痛・悪寒・吐き気などの重症に発展していく。ついには吐血・目眩・意識混濁に陥り、最終的に絶命に至る。このウイルスの猛威の前に、日本国内の名だたる医学者たちも全くなすすべがなかった。やがて新種のウイルスは、農村部を起点に日本国内のあらゆる地域へ感染範囲を広げていく。事態を重く見た政府はウイルスの感染を食い止めるため、一人でも感染者が見つかった地域に近づかないようテレビやインターネットを通じて発信した。"
"3585633","control","15","597271","20000","output","1554","私は、暗い夜道をひたすらに歩いていた。
ただまっすぐに、まっすぐに。
今が何時なのかは一切わからない。
極端に言えば、自分が誰なのかさえわかっていない。
ただただ、何かに追われているような気がして、焦っている。

何か心の中では、何とも言えない過去という恐怖から逃れているようにも感じる。
何分歩いたのだろう。私の前に赤い明りのついた建物が見えてきた。
それはとても不気味で、地獄の入り口のようにも感じた。
しかし、私の意思とは相反して、私の足は無理やりにその建物にどんどんと近づいて行こうとする。

私は、自分の足をどうにかして止めるように必死になったが、まったく言うことを聞いてくれない"
"1966230","control","12","471439","45000","output","1058","A子は楽しみにしていた映画を観にショッピングモールへと車で向かっていた。いつもの道路は通勤ラッシュなのか渋滞しており、ショッピングモールまではあと少しなのに一向に車が動かない状態が続いた。
時計を見ても開場時間の10分前が迫っていた。ようやく車が動き出してショッピングモールに着いたのは上映開始の2分前だった。
すぐに車を停めてトイレだけを済ませて、チケットの発券を行い、無事に座席に座ったのは上映開始時間だったけれど、なんとか間に合った。幸い映画が始まる前の予告映像ばかりがスクリーンに映し出されていたので、安堵したのだった。
車の中では何度も間に合うだろうかと冷や汗をかき、焦りをｋ"
"2172518","control","5","214912","41000","output","1630","犬のシロは飼い主の健太と散歩中にはぐれてしまいました。いつも散歩の時間以外は家の中で過ごしていたシロは突然"
"839571","control","14","520414","25000","revision","2798","ある日宇宙に小さな花が咲いていました。
その小さな花はいつか別の星に行きたいと願っていました。
なぜなら、その小さな花は意思を持っており自分が新天地に旅建つことを夢に見ていたからでした。

ですが、その小さな花は所詮花なのでそこから動くことができませんでした。なので、宇宙の旅行者が自分のところに来て一緒に連れて行って欲しいと願っていました。

それしか、その小さな花が新天地に行く手段はなかったからです。そして、ついにその小さな花は新天地に旅立つチャンスがやってきました。

なぜなら、ついに宇宙の旅行者が自分のところに来てくれて自分を一緒に連れて行って欲しいと伝えることができるチャンスが来たからです。

そして、その小さな花は旅行者に自分も一緒に宇宙旅行に連れて行って欲しいと伝えました。

ですが、その旅行者はある条件を飲めば一緒に連れていくと言って無条件では連れていってくれませんでした。

花はどうしても新天地に行きたいと思っていたので、そのりょこｈ"
"6337447","control","12","436129","44000","output","557","科学的なエビデンスとか、万人における再現性がどこまであるかはわからないんだけど、「身近なものを使って無料で楽しく遊んでいるうちに、自然に脳のワーキングメモリも鍛えられるなら最高じゃね？」という可能性について。

まず、用意するのは、ランダムな「4桁の数字」。個人的におすすめなのは、「現在時刻」とか「街中でパッと目に入った車のナンバープレート」とかかな。
これを「足す・引く・掛ける・割る」ことで、最終的に「10」を作る、という遊び。数字を使う順番は、任意で考えてもOK。

例えば「1457」だったら（※たまたま今見た、課題の残り時間の表示があと14分57秒だったので）、
1+4＝5、7-5＝2、5×2＝10
終わり。のような形でやる。

他の例えとしては、「4646」を10にする場合、
6×6＝36、36+4＝40、40÷4＝10
のような"
"3922243","control","18","590728","34000","revision","744","　目が覚めると、真っ白い何もない部屋にいた。
　自分がどうしてここにいるのかもよくわからない。
　今まで自分が何をしていたのか思い出そうとするが、頭に靄がかかったように記憶がぼんやりとしていた。

　しばらく部屋でぼーっとしていたが、ふと気が付くと部屋の真ん中に小さなテーブルがあった。
　先ほどまでは無かったはずなのに、と不思議に思いながら近づくと、テーブルの上には一枚の紙があった。


　「どうして」


　赤い文字でそれだけが書かれていた。
　なにがどうしてなのだろう？そして誰がこれを書いたのだろう。
　様々な疑問が湧き上がってくる。と同時になんだか胸騒ぎもする。

　しばしの間、その紙を眺めていたが、ふと視線を上げると部屋の中に一つだけ扉が表れていた。
　何の変哲もない扉ではあったが、心の中ではなぜかその扉を開けてはいけないと強く警告されているような気がした。

　もう一度紙に視線を向ける。


　「どうして」


　赤くか細い字で書かれている。
　どうして。
　この字を見るととても胸がざわつく。

　しかしそうしていても部屋には何も変化はなく、一つため息をつくと、覚悟を決めて扉を開けてみることにした。


　扉をあけるとその先は真っ暗だった。
　かろうじて廊下であることはわかるが、何の明かりもなく、廊下の先がどうなっているのかもわからない。

　扉を開けたところで呆然と立ち尽くしていたが、ふと手からカサリと音がして我に返った。
　さきほどの髪を"
"3283357","control","16","507974","16000","output","1119","1702年、カリブ海のトルトゥーガの島。海賊たちがたむろする酒場に、ボロボロの男が入店してくる。その男に声をかける赤いバンダナの男。「おい、あんた、どうした？　ここらじゃ見ない顔だな。」
ボロボロの男は答える。「オレは、ドラゴン海賊団のレイヴ。あ、あんたは？」
赤いバンダナの男は「オレはミゲルだ。ドラゴン海賊団って言ったら、スペイン船の私掠船の連中だろ？そんな奴がここにいたら、他の海賊たちに殺されちまうぞ。」
「お、オレは確かにスペイン公認の私掠船の海賊だが、スペイン政府のやり方と汚職が気にくわなくてな。逆にスペインのスクーナー船を襲っているところを、スペイン政府の艦隊に襲撃をくらって、船は大破。オレは命からがら、この島に着いたってわけだ。」
ミゲルはレイヴがうその事を言っているのか本当のことを言っているのか見極めるようにその目を見つめていった。"
"1919427","control","13","522990","39000","planning","1894","てつのりは長すぎた髪を切ろうと考え、いつも通っている美容院に行くことにした。
道中髪型をどうしようかと考えていたが、どうにも考えまとまらず、頭の中は自然と今年の夏のことに。

猛暑日が続く中、おじいちゃんが死んだという報が届いたのは8月の中旬だった。
てつのりは幼少期から祖父祖母のもとに預けられて、それから高校を卒業するまではずっと彼らと一緒にいたのだ。
そのため、報が届いたときには近年会いに行けていなかったことや昔の思い出などが頭を巡り、てつのりは我を失うほど泣いた。

特に覚えているのは、おじいちゃんと一緒にプールに行った時のことだ。
てつのりはプールサイドから、プールの上で交尾をしながら"
"4758400","control","14","451106","35000","output","1483","都内の路上。
とある人気女優が、帰路へと着いていた。
そんな時、道端で弱った黒猫を見つける。
明日は休みということもあって、彼女は自宅に連れ帰って看病した。
その猫は見る見る元気になり、彼女は安堵して床に就いた。
翌朝、彼女が目覚めると、何と頭には猫の耳が、腰には尻尾が付いていた。
すると、昨日助けた黒猫が、元気に人間の言葉を使って説明をする。
何と、助けてくれた恩返しとして、彼女がかつて猫になりたいと雑誌では発言していたことを真に受け、猫に変身させたのだ。
これでは困ると言った彼女は、元に戻る方法を黒猫に聞く。
曰く、元に戻るためには、離れてしまった群れを探さなけば行けないのだそうだ。
翌日以降、一人と一匹は、群れ探しに出かける。
様々な道行く野良猫に聞いた結果、都内の自然公園の森に集まることが分かった。
一人と一匹は、その日の夜中、森へ行くと、その黒猫と"
"5398551","control","22","694860","26000","output","813","時代ははるか未来、AIが今より発展し、ロボットとして、人間と区別がつかないほど進化し、独自の意識を持つほどになっている。それほどまでに進化した彼らには、人間の人権のような権利が認められ、人間と共存していた。
しかしAIは万能ではない。人間が時におかしくなり犯罪を犯すように、AIもまたその回路に変調をきたすことがあり、そうなった場合彼らは罪を犯してしまう。人間以上に強靭な機械の体を持つ彼ら、その蛮行を止めるには、これまでの警察機構とは異なる、彼ら専用の強力な抑止となるものが必要になった。そうして設立されたのが、対AI警察機構カウンターAI、『CAI』である。この物語はCAIに所属することとなった新人AIロボットである『ジャック』の、戦いと葛藤についてのものである。
新人であるジャックが配属された部署には、ベテランである『ブラウン』という高性能AIを搭載した特別なロボットが所属していて、ジャックは彼に教えを乞うことになった。ジャックは先輩に連れられて、ロボットが引き起こす危険な犯罪現場に何度も"
"1304218","control","2","125418","37000","planning","2874","ある森に一匹の狼が住んでいました。オオカミは"
"1274239","control","19","664024","44000","revision","791","ある日の真夜中、どうしてもお腹が空いて台所でカップ麺を作ろうとしていた。

お湯を注いでふたを閉じ、キッチンタイマーを3分にセット。

タイマーが「ピッ」と鳴った瞬間どこからともなくドアベルが鳴った。

こんな時間に誰だろうと思って玄関を開けると、作業服を着た配達員が立っていた。

胸には「ラーメン納品部」と書かれたワッペン。

「お待たせしました、納期通りです」

配達員は両手で大きな箱を差し出してきた。

中には作りかけのカップ麺がぎっしり詰まっていて、すべてお湯を入れてちょうど3分経った状態らしい。

「いや、もう作ってあるんで…」と言うと、配達員は一枚の書類を見せた。

『契約書　第7条　3分後の納品義務』と書かれている。

「契約って…いつですか？」

配達員は少し困った顔で答えた。

「小学校3年生のとき、給食でラーメン食べましたよね？あれです。」

結局、僕は一晩で14個のカップ麺を食べきった。

翌朝食器棚を開けると中はどんぶり麺でぎっしり埋まっていて、そこには新しい書類が置かれていた。

『次回納期：明日3分後』

"
"1966230","control","13","494447","20000","output","1142","A子は楽しみにしていた映画を観にショッピングモールへと車で向かっていた。いつもの道路は通勤ラッシュなのか渋滞しており、ショッピングモールまではあと少しなのに一向に車が動かない状態が続いた。
時計を見ても開場時間の10分前が迫っていた。ようやく車が動き出してショッピングモールに着いたのは上映開始の2分前だった。
すぐに車を停めてトイレだけを済ませて、チケットの発券を行い、無事に座席に座ったのは上映開始時間だったけれど、なんとか間に合った。幸い映画が始まる前の予告映像ばかりがスクリーンに映し出されていたので、安堵したのだった。
車の中では何度も間に合うだろうかと冷や汗をかき、焦りを感じたA子だけれど、実際には"
"3585633","control","16","623695","23000","planning","1097","私は、暗い夜道をひたすらに歩いていた。
ただまっすぐに、まっすぐに。
今が何時なのかは一切わからない。
極端に言えば、自分が誰なのかさえわかっていない。
ただただ、何かに追われているような気がして、焦っている。

何か心の中では、何とも言えない過去という恐怖から逃れているようにも感じる。
何分歩いたのだろう。私の前に赤い明りのついた建物が見えてきた。
それはとても不気味で、地獄の入り口のようにも感じた。
しかし、私の意思とは相反して、私の足は無理やりにその建物にどんどんと近づいて行こうとする。

私は、自分の足をどうにかして止めるように必死になったが、まったく言うことを聞いてくれない。

"
"839571","control","15","550130","25000","planning","2651","ある日宇宙に小さな花が咲いていました。
その小さな花はいつか別の星に行きたいと願っていました。
なぜなら、その小さな花は意思を持っており自分が新天地に旅建つことを夢に見ていたからでした。

ですが、その小さな花は所詮花なのでそこから動くことができませんでした。なので、宇宙の旅行者が自分のところに来て一緒に連れて行って欲しいと願っていました。

それしか、その小さな花が新天地に行く手段はなかったからです。そして、ついにその小さな花は新天地に旅立つチャンスがやってきました。

なぜなら、ついに宇宙の旅行者が自分のところに来てくれて自分を一緒に連れて行って欲しいと伝えることができるチャンスが来たからです。

そして、その小さな花は旅行者に自分も一緒に宇宙旅行に連れて行って欲しいと伝えました。

ですが、その旅行者はある条件を飲めば一緒に連れていくと言って無条件では連れていってくれませんでした。

花はどうしても新天地に行きたいと思っていたので、その旅行者の条件を飲みました。

そして、旅行者は"
"1533311","control","19","654923","35000","planning","1065","おばあさんとおじいさんが川に洗濯に行きました。そこへ桃が流れてきましたが、二人とも見逃してしまいました。ある日、二人の元へ少年が現れました。少年は私は桃太郎だと自慢げに名乗りましたが、おじいさんとおばあさんは意味がわかりません。少年は二人に桃太郎の絵本を読んだことがないのかと尋ねました。二人は首を横に振りました。仕方なく少年は桃太郎という絵本を取り出しおじいさんとおばあさんに読み聞かせを始めました。すると二人はたいそう感激して少年にお礼を言いました。そして少年にもっと他にも絵本を読んでほしいと頼みました。しょうん"
"438363","control","17","604846","35000","revision","1074","僕は川沿いをランニングするのが日課だった。サッカー部に入っているのだが、部活を終えた後も、足腰を鍛え、持久力を付けるために、一度家に帰った後も、こうしてランニングに励むのだった。ある日、何時ものように川沿いを走っていると突然、空が真っ黒な雲に覆われ、雷の音が響いてきた。大きな雨粒がポツポツと降ってきて、僕の顔に当たる。「雷雨だ」と慌てて、近くの大きな樹の下に雨宿りをした。雨は激しくなるばかりだった。雨具を持っていないため、このままここに止まるしかない。暗くなり視界が悪くなっていく川の景色を眺めながら、ため息をついた。川の水かさはみるみる増していく。その時だった。「そこにいては危険ですよ」激しい雷鳴や雨音に交じって、誰かが僕に呼びかける声がした。声のする方向に顔を向けると、赤い傘を差した女子高校生風の女の子がいた。「大きな木の傍に"
"6337447","control","13","468258","29000","planning","913","科学的なエビデンスとか、万人における再現性がどこまであるかはわからないんだけど、「身近なものを使って無料で楽しく遊んでいるうちに、自然に脳のワーキングメモリも鍛えられるなら最高じゃね？」という可能性について。

まず、用意するのは、ランダムな「4桁の数字」。個人的におすすめなのは、「現在時刻」とか「街中でパッと目に入った車のナンバープレート」とかかな。
これを「足す・引く・掛ける・割る」ことで、最終的に「10」を作る、という遊び。数字を使う順番は、任意で考えてもOK。

例えば「1457」だったら（※たまたま今見た、課題の残り時間の表示があと14分57秒だったので）、
1+4＝5、7-5＝2、5×2＝10
終わり。のような形でやる。

他の例えとしては、「4646」を10にする場合、
6×6＝36、36+4＝40、40÷4＝10
のような、大きめの掛け算・割り算が綺麗にハマる場合もあって、そういう時の爽快感は実にイイ。
"
"2172518","control","6","255816","37000","output","1117","犬のシロは飼い主の健太と散歩中にはぐれてしまいました。いつも散歩の時間以外は家の中で過ごしていたシロは突然自分だけで外の世界に"
"1274239","control","20","685088","19000","revision","889","ある日の真夜中、どうしてもお腹が空いて台所でカップ麺を作ろうとしていた。

お湯を注いでふたを閉じ、キッチンタイマーを3分にセット。

タイマーが「ピッ」と鳴った瞬間どこからともなくドアベルが鳴った。

こんな時間に誰だろうと思って玄関を開けると、作業服を着た配達員が立っていた。

胸には「ラーメン納品部」と書かれたワッペン。

「お待たせしました、納期通りです」

配達員は両手で大きな箱を差し出してきた。

中には作りかけのカップ麺がぎっしり詰まっていて、すべてお湯を入れてちょうど3分経った状態らしい。

「いや、もう作ってあるんで…」と言うと、配達員は一枚の書類を見せた。

『契約書　第7条　3分後の納品義務』と書かれている。

「契約って…いつですか？」

配達員は少し困った顔で答えた。

「小学校3年生のとき、給食でラーメン食べましたよね？あれです。」

結局、僕は一晩で14個のカップ麺を食べきった。

翌朝食器棚を開けると中はどんぶり麺でぎっしり埋まっていて、そこには新しい書類が置かれていた。

『次回納期：明日3分後』

契約破棄させてくれぇ！"
"1304218","control","3","148262","17000","planning","2672","ある森に一匹の狼が住んでいました。オオカミはいつも村の住人がたｎ"
"2752457","control","19","688115","45000","planning","988","ある日、日本のとある農村部に未知のウイルスが蔓延し始めた。そのウイルスに感染した者には、当初微熱が発症する。単なる風邪だろうとたかをくくっていると、その数日後に高熱・頭痛・悪寒・吐き気などの重症に発展していく。ついには吐血・目眩・意識混濁に陥り、最終的に絶命に至る。このウイルスの猛威の前に、日本国内の名だたる医学者たちも全くなすすべがなかった。やがて新種のウイルスは、農村部を起点に日本国内のあらゆる地域へ感染範囲を広げていく。近隣の都市部でも感染者が現れると、自分も被害に遭うのではないかとお
パニックが広がり始める。

事態を重く見た政府はウイルスの感染を食い止めるため、一人でも感染者が見つかった地域に近づかないようテレビやインターネットを通じて発信した。"
"4758400","control","15","482578","28000","planning","1463","都内の路上。
とある人気女優が、帰路へと着いていた。
そんな時、道端で弱った黒猫を見つける。
明日は休みということもあって、彼女は自宅に連れ帰って看病した。
その猫は見る見る元気になり、彼女は安堵して床に就いた。
翌朝、彼女が目覚めると、何と頭には猫の耳が、腰には尻尾が付いていた。
すると、昨日助けた黒猫が、元気に人間の言葉を使って説明をする。
何と、助けてくれた恩返しとして、彼女がかつて猫になりたいと雑誌では発言していたことを真に受け、猫に変身させたのだ。
これでは困ると言った彼女は、元に戻る方法を黒猫に聞く。
曰く、元に戻るためには、離れてしまった群れを探さなけば行けないのだそうだ。
翌日以降、一人と一匹は、群れ探しに出かける。
様々な道行く野良猫に聞いた結果、都内の自然公園の森に集まることが分かった。
一人と一匹は、その日の夜中、森へ行くと、その黒猫と同じ言葉を話す猫がたくさんいた。
早速、そこにいるボス猫に、もｔ"
"3585633","control","17","657381","29000","planning","1632","私は、暗い夜道をひたすらに歩いていた。
ただまっすぐに、まっすぐに。
今が何時なのかは一切わからない。
極端に言えば、自分が誰なのかさえわかっていない。
ただただ、何かに追われているような気がして、焦っている。

何か心の中では、何とも言えない過去という恐怖から逃れているようにも感じる。
何分歩いたのだろう。私の前に赤い明りのついた建物が見えてきた。
それはとても不気味で、地獄の入り口のようにも感じた。
しかし、私の意思とは相反して、私の足は無理やりにその建物にどんどんと近づいて行こうとする。

私は、自分の足をどうにかして止めるように必死になったが、まったく言うことを聞いてくれない。

すると突然、背後から私の肩を"
"3922243","control","19","636944","44000","output","920","　目が覚めると、真っ白い何もない部屋にいた。
　自分がどうしてここにいるのかもよくわからない。
　今まで自分が何をしていたのか思い出そうとするが、頭に靄がかかったように記憶がぼんやりとしていた。

　しばらく部屋でぼーっとしていたが、ふと気が付くと部屋の真ん中に小さなテーブルがあった。
　先ほどまでは無かったはずなのに、と不思議に思いながら近づくと、テーブルの上には一枚の紙があった。


　「どうして」


　赤い文字でそれだけが書かれていた。
　なにがどうしてなのだろう？そして誰がこれを書いたのだろう。
　様々な疑問が湧き上がってくる。と同時になんだか胸騒ぎもする。

　しばしの間、その紙を眺めていたが、ふと視線を上げると部屋の中に一つだけ扉が表れていた。
　何の変哲もない扉ではあったが、心の中ではなぜかその扉を開けてはいけないと強く警告されているような気がした。

　もう一度紙に視線を向ける。


　「どうして」


　赤くか細い字で書かれている。
　どうして。
　この字を見るととても胸がざわつく。

　しかしそうしていても部屋には何も変化はなく、一つため息をつくと、覚悟を決めて扉を開けてみることにした。


　扉をあけるとその先は真っ暗だった。
　かろうじて廊下であることはわかるが、何の明かりもなく、廊下の先がどうなっているのかもわからない。

　扉を開けたところで呆然と立ち尽くしていたが、ふと手からカサリと音がして我に返った。
　さきほどの紙をそのまま手に持っていたようだ。
　なんとなく嫌な感じはするが、それを手放す気にもなれず、紙を持って扉の先へと進むことにした。


　とても暗い廊下を"
"3283357","control","17","554678","42000","output","1149","1702年、カリブ海のトルトゥーガの島。海賊たちがたむろする酒場に、ボロボロの男が入店してくる。その男に声をかける赤いバンダナの男。「おい、あんた、どうした？　ここらじゃ見ない顔だな。」
ボロボロの男は答える。「オレは、ドラゴン海賊団のレイヴ。あ、あんたは？」
赤いバンダナの男は「オレはミゲルだ。ドラゴン海賊団って言ったら、スペイン船の私掠船の連中だろ？そんな奴がここにいたら、他の海賊たちに殺されちまうぞ。」
「お、オレは確かにスペイン公認の私掠船の海賊だが、スペイン政府のやり方と汚職が気にくわなくてな。逆にスペインのスクーナー船を襲っているところを、スペイン政府の艦隊に襲撃をくらって、船は大破。オレは命からがら、この島に着いたってわけだ。」
ミゲルはレイヴがうその事を言っているのか本当のことを言っているのか見極めるようにその目を見つめて言った。
「あんたが言っていることが本当なら、助けてやってもいいぜ。オレは、モーゼスかいぞくだん」"
"2172518","control","7","275265","16000","output","1505","犬のシロは飼い主の健太と散歩中にはぐれてしまいました。いつも散歩の時間以外は家の中で過ごしてたシロは突然自分だけで外の世界に"
"1533311","control","20","684173","27000","planning","853","おばあさんとおじいさんが川に洗濯に行きました。そこへ桃が流れてきましたが、二人とも見逃してしまいました。ある日、二人の元へ少年が現れました。少年は私は桃太郎だと自慢げに名乗りましたが、おじいさんとおばあさんは意味がわかりません。少年は二人に桃太郎の絵本を読んだことがないのかと尋ねました。二人は首を横に振りました。仕方なく少年は桃太郎という絵本を取り出しおじいさんとおばあさんに読み聞かせを始めました。すると二人はたいそう感激して少年にお礼を言いました。そして少年にもっと他にも絵本を読んでほしいと頼みました。少年は仕方なく他の物語についても語ってあげました。"
"839571","control","16","582301","28000","output","2481","ある日宇宙に小さな花が咲いていました。
その小さな花はいつか別の星に行きたいと願っていました。
なぜなら、その小さな花は意思を持っており自分が新天地に旅建つことを夢に見ていたからでした。

ですが、その小さな花は所詮花なのでそこから動くことができませんでした。なので、宇宙の旅行者が自分のところに来て一緒に連れて行って欲しいと願っていました。

それしか、その小さな花が新天地に行く手段はなかったからです。そして、ついにその小さな花は新天地に旅立つチャンスがやってきました。

なぜなら、ついに宇宙の旅行者が自分のところに来てくれて自分を一緒に連れて行って欲しいと伝えることができるチャンスが来たからです。

そして、その小さな花は旅行者に自分も一緒に宇宙旅行に連れて行って欲しいと伝えました。

